seconds_elapsed,z,y,x
0.0,5.313930584716797,-7.9849618118286125,0.3289034530639648
0.01,5.765638961389562,-8.058332733361462,0.15785376404327744
0.02,6.152011520500115,-8.18477876597295,0.08369238388155646
0.03,6.41681718351828,-8.315700070612758,0.19371716051292895
0.04,6.494167520842591,-8.393936825490197,0.6302679394409832
0.05,6.335054104445822,-8.460604519899075,1.0942346832733032
0.06,6.0103080359000165,-8.441175409027988,1.3157554327792524
0.07,5.80745712256442,-8.372205443229022,1.2452652326037477
0.08,5.981245286352782,-8.462934197694585,1.0640201305185195
0.09,6.412643599765316,-8.718498119001108,1.0916554363915263
0.1,6.752582773336128,-9.047034497924448,1.039264792613748
0.11,6.739547106802745,-9.01807524014197,0.8116518063746008
0.12,6.554997222208679,-8.745137228242134,0.5848432755387081
0.13,6.477227207754354,-8.586692310876224,0.6144684769892749
0.14,6.451951706907481,-8.550816110042172,0.44810158211600104
0.15,6.205417333350215,-8.40561743597676,0.2519288719845352
0.16,5.926340285342594,-8.21559614611098,0.07518602202565207
0.17,5.927249634793952,-8.176287678573276,0.03886844950695236
0.18,6.152641944005305,-8.119671710097363,0.21738184151422474
0.19,6.408478780526579,-7.999243349262558,0.4555455203686669
0.2,6.507832018927425,-7.77047738194241,0.5165925274662382
0.21,6.562315551940282,-7.559760394870629,0.5045259276375137
0.22,6.649606024123579,-7.423366976498949,0.6039642594838329
0.23,6.781846834747345,-7.293105042657501,0.649056729450432
0.24,7.015084532449325,-7.280406393827082,0.6190600007662989
0.25,7.182967733772062,-7.449411460603823,0.5166934569861313
0.26,7.250525729109265,-7.531407205672507,0.2939758409334334
0.27,7.239821631435578,-7.458662515850986,0.09696753411327699
0.28,7.158709898574027,-7.382477940650537,-0.050458902534676255
0.29,7.011653596509186,-7.434197840567725,-0.1382829552795477
0.3,6.873175185138552,-7.381396221278224,-0.044301032585020474
0.31,6.877530461100794,-7.175891349692736,0.01056999123736199
0.32,6.453477840711308,-6.982681975670509,0.04927658709251222
0.33,6.097612785136591,-7.28706291526223,0.35905115356101286
0.34,6.1265737269249465,-7.685417856687435,0.5305356819004233
0.35,5.819700139784967,-7.491927387236405,0.509815971436431
0.36,5.3090614972374714,-6.90917526725027,0.41274820952094565
0.37,5.423209567791034,-6.511392297989449,0.2824948981954164
0.38,5.920645479531768,-6.6949568136253585,0.22615666182001476
0.39,6.541873438142937,-7.119090024201412,0.1310136810146193
0.4,7.068005326031273,-7.7529926197331465,0.13581111247586236
0.41,7.224744002298467,-8.321820430117933,0.2578020601013321
0.42,6.3912452421542705,-8.47517913158401,0.24148728712581602
0.43,5.300810631257263,-7.7845500590027115,0.3266960699193986
0.44,5.238354302547211,-7.047812900948411,0.4413665260412898
0.45,6.447624585760554,-7.5491195275376946,0.2441259600570529
0.46,7.814213830081553,-9.008035652440727,0.13979972501080343
0.47,7.679916511452929,-9.561255592527043,0.15116682840843854
0.48,6.277152719288991,-8.91620845210886,0.15421482638748382
0.49,5.647116316803464,-7.473688505950545,0.25715845043739183
0.5,6.068303200870975,-6.921699210448864,-0.06953990619361552
0.51,6.833673339327908,-7.095363883605953,-0.40094936263020453
0.52,6.750939968527806,-7.2468373160491,-0.8266919657367986
0.53,6.0320900523475025,-6.992840583101856,-1.1907486182154174
0.54,5.576058197932521,-6.605449520251756,-1.5291034656229032
0.55,5.638004962569403,-6.402340293773362,-1.9412433975701036
0.56,5.756033286706075,-6.25275200652427,-2.196017714780303
0.57,6.090995711548411,-6.262644939820414,-2.235091694574778
0.58,6.256671684579913,-6.346158569193711,-1.9891376407405188
0.59,6.321514035117197,-6.307821538962232,-1.6569370116556583
0.6,6.107169084197608,-6.483453792485585,-1.3314524036937934
0.61,5.775980018570166,-7.017112449927884,-1.2063739305283891
0.62,5.744458114677383,-7.1038638119126505,-1.2045241355229868
0.63,5.925459913590542,-6.421255231872403,-1.2270932219501032
0.64,6.267886574196306,-5.363448615401438,-0.9779387080919544
0.65,6.531238819659351,-4.688900281693236,-0.8708874093331502
0.66,6.328314954897758,-4.72197191383703,-0.8843581908884309
0.67,6.210497576423944,-5.608708485852151,-0.9561901613782182
0.68,6.1805089808081854,-6.460426456901835,-0.9252230534466008
0.69,6.419679216121173,-6.560790913733008,-0.4241429086866387
0.7,6.775524689470253,-6.02919541768008,-0.03372707421762678
0.71,7.111502294984409,-5.467949880729325,-0.019546918532192585
0.72,7.504169636519908,-5.409112226400816,-0.12451991930947011
0.73,7.642884802440501,-5.860586871025822,0.022961725715949823
0.74,7.532783230396693,-6.1537083598126445,0.16251547165061112
0.75,7.49104084872429,-5.842695178718376,0.0465263384828246
0.76,7.65437447969883,-5.51905487072623,-0.22284005446104443
0.77,7.86346418666299,-5.387289561532845,-0.40619467088136796
0.78,7.877052602861985,-5.390349662363823,-0.2936222305683218
0.79,7.631260171548005,-5.431306181284951,-0.17144740830760138
0.8,7.419128738523024,-5.419003306306256,-0.009444512361048523
0.81,7.28943723287401,-5.568596750515827,0.09077149427416735
0.82,7.0877848009537825,-5.6367722910609555,-0.0509969789324904
0.83,6.792807324546691,-5.511431568952213,-0.31781861863538996
0.84,6.791695811748673,-5.412172461663386,-0.5736477756348741
0.85,7.046737757532606,-5.5196977721497165,-0.5648324743070706
0.86,7.346867088606009,-5.775319022972934,-0.28705710547886193
0.87,7.533294281319863,-5.981076483115265,0.2555593835688007
0.88,7.519947961613423,-6.066885501550917,0.7057026532663443
0.89,7.330166271447062,-6.041034586496562,0.7868912592260597
0.9,7.131448360673186,-5.998473031589812,0.6865342273370538
0.91,7.050668577894955,-6.036119773467489,0.5280803916199153
0.92,6.973104717502566,-6.124264694539731,0.3129670082087119
0.93,6.862976320676561,-6.124900448187794,0.12150721985109976
0.94,6.729701234708723,-6.107458451535079,-0.019027097682189704
0.95,6.51795894839574,-6.251770222280784,-0.16659882005559332
0.96,6.434466958593808,-6.534929012340887,-0.3070905765105643
0.97,6.489944918439615,-6.683484370870942,-0.208689947573892
0.98,6.595267444828363,-6.703631116521223,-0.008388062706959307
0.99,6.893039620327832,-6.65160533835577,0.3469054594248658
1.0,7.282789683008061,-6.61133079798572,0.6345054319803136
1.01,7.432673566482115,-6.768444709855311,0.7036995019961406
1.02,7.286543956960632,-7.06032390233634,0.7675765422904642
1.03,7.025304514946121,-7.375019439953369,0.9081787168259532
1.04,6.828996604809134,-7.694821190775389,1.0099913340642515
1.05,6.8090800418386745,-7.960342069241839,1.0100766852123737
1.06,6.841638770500238,-8.153855510603709,1.032256710787437
1.07,6.8648796002354295,-8.305394655011499,1.0122527571571645
1.08,6.760698292008659,-8.373927632491696,0.9104125755762421
1.09,6.710036938575513,-8.147703265316105,0.7746731245828784
1.1,6.8565989926542725,-7.802806187804428,0.5671617592270194
1.11,7.107494775020542,-7.55861978634106,0.2785900943786112
1.12,6.822625680508283,-7.522623818421123,0.05229243456873445
1.13,6.220694505279635,-7.646024847204707,-0.000314728341409384
1.14,5.919579047383008,-7.9443210324422795,-0.07604001513756159
1.15,5.760399640420629,-8.317815559263934,-0.22878772515992793
1.16,5.673648545177527,-8.468694982933508,-0.35480227105979284
1.17,5.596434630553263,-8.539009433301974,-0.5786517160175025
1.18,2.854460104154941,-8.907703790419964,-1.1617551317812334
1.19,1.559174835566576,-8.710008260144956,-1.482747393034552
1.2,5.384169545192546,-7.657791036516863,-0.9805840950471116
1.21,10.313077376334855,-7.217870393745059,-0.7269452826694174
1.22,10.24596106200357,-7.788089029295776,-0.02750153088684761
1.23,6.673865040910167,-8.941783385056024,0.909990020785629
1.24,4.894756017822964,-9.899365415594414,1.9905644432120968
1.25,5.662934373983234,-10.280720178264923,3.458754144583307
1.26,7.128229636119302,-10.262947007218154,4.238849539099604
1.27,7.63152349018221,-10.307546811416142,3.7037649005184803
1.28,6.117334198387216,-12.65209079635718,4.400248189906188
1.29,4.691452258976407,-13.274796831721318,2.0463878168168796
1.3,5.6827919752108675,-9.509026162415926,-0.502091175472273
1.31,7.13278042811988,-6.439131059568682,0.25161386848050094
1.32,7.026840154696621,-5.705570518023769,-0.12162085270630901
1.33,5.638977068100432,-5.938286284166228,-1.0896891477086506
1.34,4.14894548729831,-6.445062292588051,-0.6980779519145066
1.35,3.238737707593381,-6.864004125215361,0.46640929442116985
1.36,3.2008730630568074,-7.486882634469113,1.6397213397042452
1.37,4.073995229557437,-7.948041835379411,1.9648783759855193
1.38,4.95024871262515,-7.778506862719532,1.3377895844327718
1.39,4.513599861659189,-7.490264015605519,0.7124985545738365
1.4,4.535776655355627,-7.52486637250167,0.5947515206415873
1.41,6.654886860322067,-7.775249680117176,1.1660846045518687
1.42,9.88720877582862,-7.630391349579687,2.889751536744621
1.43,10.942412040121154,-7.423810063554481,3.7613184882949158
1.44,7.37264027305863,-7.870171796482562,2.415840331831953
1.45,2.96730618865998,-8.767595635775027,1.4668373328298703
1.46,1.4793463316772095,-10.011612721789293,1.5729927844377374
1.47,2.342359603826528,-10.79417516609325,2.351058982690063
1.48,4.016400051758074,-10.657632785972332,3.514255903226843
1.49,4.67884252293455,-10.949011934477332,3.4202525883283847
1.5,4.410457657343826,-11.020385444170756,2.5732482999836668
1.51,5.0557117077456715,-9.948648272393319,2.228013758029001
1.52,6.21834961988046,-8.46412383102641,2.0956600938194954
1.53,6.835505141825779,-7.8006571485245555,2.4455012291956506
1.54,6.812749300076766,-8.276668284171436,3.275255272332153
1.55,5.902847715789276,-8.418019678930312,3.487670322139345
1.56,4.841044172743222,-7.916402576644737,3.1237636747577695
1.57,4.4700997048514814,-7.2949019541038025,2.78087572212914
1.58,3.6534561321019234,-7.478554963332711,2.3790322158936323
1.59,2.758849565963755,-7.913255949112078,1.8276508215640603
1.6,3.5823027765822752,-7.0556266411919655,0.8036794033352811
1.61,5.670636182440533,-6.081307468908421,1.0683238690314771
1.62,6.405019972585327,-6.045998469809206,2.3232938452397005
1.63,5.779930739545506,-6.028921831565954,2.0443093074445073
1.64,6.092977448672367,-6.076626944305989,1.7183104437229346
1.65,6.935252098821475,-6.653195972279838,2.0021969901747054
1.66,7.233451729001841,-7.128483953638821,2.4040436093392876
1.67,6.490654010243475,-7.478233775019101,2.5912244990378452
1.68,6.113572958776024,-7.775196479195227,2.9165154883338666
1.69,6.028888812614939,-7.579462468786134,3.1649238057925353
1.7,5.483611346952303,-7.218050325046071,2.772385523729383
1.71,4.531656245549772,-7.187280118838208,2.1772319589053364
1.72,5.120091716484095,-7.511781033514226,2.0166964551974855
1.73,7.1441992760136435,-7.987781094249517,2.2030963066773044
1.74,7.35955897685831,-7.8876410149659995,2.529102363119198
1.75,6.414189824026085,-7.124940483605794,2.6245291806026625
1.76,5.76770672734282,-6.305635508526152,2.1507931240818796
1.77,5.38615276726059,-6.681785817480565,2.255114335848304
1.78,5.424468307903024,-7.391066868203157,2.849145978152755
1.79,6.286979123537473,-7.81189520138864,3.1056269149174596
1.8,7.175709561416415,-7.789958098647462,3.2410167652460125
1.81,7.560680906979616,-7.0643179966206535,3.1937055902888862
1.82,7.770359539052399,-5.572265488567071,2.5680864034473525
1.83,7.590432192327299,-4.638945522000445,1.7676971055395063
1.84,7.23499441054108,-5.2460019543721375,1.417288496821517
1.85,7.478741665422145,-6.81238781723922,1.5299477223060765
1.86,7.897249017975704,-8.314947152049285,1.7989843772306935
1.87,7.550270981525199,-9.396053354577873,2.154357979121888
1.88,6.4830285010351085,-10.21010345634574,2.838451062266931
1.89,5.319576897189845,-10.927910637032124,3.5211175746631165
1.9,4.583383909059182,-11.169547201319139,3.516160872397318
1.91,4.36630908182964,-10.719722416059621,3.002431129404746
1.92,4.506924821488174,-10.4061416361493,2.294116438189942
1.93,5.142503313487559,-10.184493706725092,1.9603358120573273
1.94,4.863504837349568,-9.56558174123375,1.8401569334144876
1.95,3.589773425805077,-9.326171228333699,1.241485865351711
1.96,3.344972725946736,-9.908777391504675,1.6614932691804971
1.97,3.555113186647571,-9.932025878687979,1.6703801688232223
1.98,3.6809689763852975,-8.918361862108995,1.1644958685701263
1.99,3.338035617148014,-7.971165003378718,0.8589615588472745
2.0,3.076854841989549,-7.559016146312312,0.9536585586284023
2.01,3.2468554856973366,-7.535845764893918,1.0012905912818648
2.02,3.7109373320437506,-8.084295680356561,1.1065151136373514
2.03,4.150789731354627,-8.957845126278444,1.4124741465096515
2.04,4.723035781690825,-9.33232890566532,1.6621007706778879
2.05,5.210668098841597,-9.07749557200973,1.6424590064335125
2.06,5.378915929344945,-8.330109063091033,1.4540804654906871
2.07,5.470071523577335,-7.553466347904327,1.4177284939072825
2.08,5.799176578674879,-6.93038519725225,1.4828076920270246
2.09,6.303906055648116,-6.49895114220532,1.633468114376676
2.1,6.407781500968836,-5.90899806519767,1.8763209686908198
2.11,6.718346384331401,-4.7095302045134435,1.8829192067201768
2.12,7.124337814824945,-3.0769863901532224,1.5759495748831753
2.13,6.537492630849538,-2.6102954953407376,1.2457962256339261
2.14,5.5735464418155924,-3.5025620094216756,1.1951454185248203
2.15,4.837854960242064,-5.049113201070079,1.1479709843609356
2.16,4.879857428728914,-6.7072235801816165,0.9164430747836853
2.17,5.463888943480271,-8.104077506382268,0.5986688433983262
2.18,5.200154751475346,-8.492604791826691,0.18898765458258138
2.19,4.566266661648319,-8.02596676814766,-0.11066101326952617
2.2,4.307602877303253,-7.908489951153889,0.07990974994148821
2.21,4.751193939872923,-8.224660975365,0.7922894314121357
2.22,5.344660116269968,-7.987802016862064,1.6875737725468802
2.23,5.680686642174339,-7.332594081124562,2.3589347867103085
2.24,5.9255707999365725,-7.14448796607672,2.7509842100584714
2.25,6.041759435220116,-7.430272432536556,2.8097206587076133
2.26,5.833969661058958,-7.595512242414225,2.5928470775261
2.27,5.818943613279372,-7.581831968134463,2.2126072829678476
2.28,6.150941016332751,-7.467120247173571,1.6124505695165827
2.29,6.346196944439017,-7.329994218696066,1.1525955953974638
2.3,6.2821685385247585,-7.415233081086436,1.270173845350858
2.31,5.727113897085139,-7.334792045461966,1.4017046375747149
2.32,5.41622839132389,-6.806319064563641,1.6959693655639532
2.33,5.7630689029054665,-6.604978319284396,2.038994457951178
2.34,6.261152870707811,-6.658197216237251,1.68341820682101
2.35,6.489492855037067,-6.986092529885336,1.12925927878743
2.36,5.771381933593403,-7.891009172353708,1.053467486602029
2.37,5.4404699016139455,-7.993562511121726,1.0182391268382185
2.38,5.351731309691955,-7.873284387247427,1.0631091675474493
2.39,5.3583670432675135,-7.86467088949724,1.1135617297963087
2.4,5.116978728428219,-7.13217504365825,0.9312351885051222
2.41,5.00501185902147,-6.33185106593053,1.1277499963404023
2.42,5.312731062448435,-6.383122279837992,1.715488845991746
2.43,5.738501889413179,-6.56357032993395,1.7935205469205575
2.44,5.808011347935884,-6.550903587945762,1.6480752438040773
2.45,5.746174790784995,-7.184862513748589,1.7789482689152933
2.46,6.119305918520058,-7.8266423505249,1.7113920130521143
2.47,6.604927543690441,-7.913037809730622,1.3554686267910272
2.48,6.975728386191731,-7.747823670246734,0.8263329002018046
2.49,7.144564177660786,-7.6435791652127705,0.5107996943961635
2.5,6.6708185694951165,-7.733304038642735,1.171259540921473
2.51,5.556418614731017,-7.841529112734504,2.3707434614898735
2.52,5.2152321555942285,-8.404816977662296,2.8629638167355873
2.53,5.291871715210961,-9.153671339865706,2.4866948896710133
2.54,5.186460862522271,-9.457880338958207,1.8738832299432544
2.55,5.6547142782900215,-9.614529665583786,1.23306871979595
2.56,6.366588794901251,-9.503548015398197,1.1479784634133803
2.57,6.655029930518515,-9.12902898354334,1.4774751048196217
2.58,5.670500885931452,-8.125971760530547,2.028994528130375
2.59,5.07428831637041,-7.3866090735442,2.059182640755159
2.6,6.161788814497225,-7.5702398568283735,0.7330043603208225
2.61,6.8873417175036655,-7.7499542637584025,0.1609476249501919
2.62,5.759986932663399,-7.445533488950163,0.7403008845139317
2.63,5.340309045242583,-8.06407797119132,1.1885262585660719
2.64,5.95007798023486,-9.009395215582238,0.6491899066475497
2.65,6.142071534604633,-9.158970307225127,0.5782613669558708
2.66,5.905688065718543,-9.027916546281581,1.110731750037593
2.67,5.518533233017665,-8.984252697480104,1.3176451170553831
2.68,4.695854370361161,-8.70801234444083,1.6299529852043249
2.69,3.957725794595673,-8.426357488234922,1.9797833697405738
2.7,3.292715036802174,-8.549997554157555,2.0478511615308794
2.71,2.895180270304166,-8.60927233580336,1.9855131008236901
2.72,3.211981061649603,-8.367964918991333,1.5933681974987395
2.73,3.895279884849396,-8.019682149216088,0.9812152064065881
2.74,4.561429612270324,-7.779632391579515,0.6688481994219247
2.75,4.8823469431874,-7.741612110418918,0.9633745243446855
2.76,5.05959733615684,-7.859477922409405,1.4147413914263014
2.77,4.959680646667316,-8.204326620848699,1.899896416142214
2.78,4.484013547851268,-8.645307168285917,2.11601865501041
2.79,4.131381422630412,-8.692056908631692,2.006609333909798
2.8,4.071063483096236,-8.38690999465334,1.6816606280762343
2.81,4.044812269199957,-8.13394306744407,1.3665740443030245
2.82,4.246889083691504,-8.043530262704646,1.1745538798968858
2.83,4.657673431865383,-8.232332218816289,1.2996355056492586
2.84,4.995894477511436,-8.633422188276473,1.1571277085914768
2.85,4.909142611487145,-9.233709248942064,1.121585459691522
2.86,4.732299152019749,-9.738290127451574,0.9485959618152104
2.87,4.858123679836335,-9.508902921083019,0.7156115548798606
2.88,4.886750972237821,-9.127595326085407,1.3605039172566067
2.89,4.996808449458087,-9.315297505046864,1.4967842166179772
2.9,4.666609560978456,-9.42794430528542,1.484434243217378
2.91,4.795528364245615,-9.345995627173197,1.4433077924073305
2.92,4.901417214319083,-9.322961752630382,1.370611812978255
2.93,4.953989344740228,-9.155907582874635,1.2594402905603808
2.94,4.802162391471417,-8.948413112895672,1.2086912319749241
2.95,4.385316380759921,-8.655106676982577,1.3476140868811997
2.96,4.054074583805083,-8.40509927367167,1.6695641896746989
2.97,3.9869641358858128,-8.352237395959998,2.4382086224118553
2.98,3.5945882692659636,-8.329896675152341,2.659463150902538
2.99,3.7353211773944635,-8.310941933450446,2.441370586192986
3.0,4.052060199173997,-8.388210152466629,2.1781187782188782
3.01,4.523438703721027,-8.527298479937059,2.015823730877809
3.02,4.95312256010879,-8.654192494520187,2.220431195047811
3.03,5.131944302948763,-8.732044829601477,2.6119300065198128
3.04,4.788809666787555,-8.928154617349863,2.903032652397988
3.05,5.201868390209952,-9.11330789153923,2.545842330881907
3.06,5.539365638781302,-8.866359105704081,1.6243642790713637
3.07,5.019968242203488,-8.409182758072724,1.4848228967204036
3.08,4.4357409842068645,-8.005137486902342,1.587991879885522
3.09,4.383235636609421,-7.81351636975388,1.2822904471256424
3.1,4.627199798492048,-7.463493526141681,1.117767629737011
3.11,4.192050357149952,-7.423258604519103,1.216601081963182
3.12,3.1477750996822937,-7.544232284701679,1.9903796650167354
3.13,3.1051301777832796,-7.577032739759228,2.3776603219663044
3.14,4.300646673539449,-7.9490934833999445,2.0715422880806407
3.15,5.059134885468131,-8.6697810581612,1.7762596448352128
3.16,5.250171836087946,-9.24818663900525,1.7119421024718438
3.17,5.231489550259658,-9.247208263902078,1.7013484438180928
3.18,5.233111666307794,-9.021171438289256,1.9191857368353993
3.19,5.350148521360894,-8.842871246749427,2.1981785984988482
3.2,5.221407507789011,-8.668759846670048,2.3355649443903808
3.21,4.634663385262047,-8.618629572926324,2.358329878435787
3.22,4.085184685940381,-8.515165111158444,2.4113533980221624
3.23,4.016320390754036,-8.311630087777546,2.2554607332628915
3.24,4.297261539223599,-8.177143853291327,2.148557469215583
3.25,4.642344474900235,-8.38586382305875,2.1799034066159972
3.26,5.123592790642426,-8.921130531157488,2.2697696130843834
3.27,5.699969916964847,-9.393387540366952,2.204523924791273
3.28,6.011355727792202,-9.431384436854774,2.218966963055967
3.29,5.900517434010621,-9.110618594737023,2.1126441915940286
3.3,5.507021375583816,-9.188656578853399,2.031860503853419
3.31,5.19397741159884,-9.376376736759532,2.171215933663498
3.32,4.972029011626351,-9.375439465812528,2.349723275254746
3.33,4.649081644693907,-9.239721073589239,2.637813867421524
3.34,4.274200434589178,-9.280928587222546,2.655901465307009
3.35,4.039513251907789,-9.419357560692806,2.4357768489102978
3.36,3.9993451791842265,-9.609095114281704,2.2257679509764774
3.37,4.079491893545445,-9.359680646015534,2.1855854735980227
3.38,3.963426879881677,-9.234931702860528,2.2086893703268453
3.39,3.8649118901848922,-9.080585439387294,2.0412462062147627
3.4,4.0575993270588215,-8.735113237948143,1.9146562734295105
3.41,4.329199151887659,-8.382337000306904,1.9599408096328284
3.42,4.4205376493584945,-8.029151860135602,1.987621364850622
3.43,4.551031840381335,-7.646661273822745,1.8209183892710157
3.44,4.635843659551801,-7.765238196536343,1.690525022485956
3.45,4.677996610764166,-8.051766687088781,1.6028118650872876
3.46,4.833672125100006,-8.203378253968056,1.5060128085043196
3.47,5.130022728895269,-8.588779656957106,1.6048946887535374
3.48,5.26641496529477,-8.89463129296236,1.8643166702536091
3.49,5.359755627068006,-8.76459255273421,1.9209163005475474
3.5,5.303767953557214,-8.601712009660126,1.8472277143623441
3.51,4.993726829427154,-8.3822240360357,1.9127094631742414
3.52,4.66059898447647,-8.090115831843153,2.0574300073624854
3.53,4.5099187603669755,-7.683979697866965,1.9998002822115195
3.54,4.113538546639602,-7.44802321544057,1.8872755424121372
3.55,4.076455246073896,-7.420392885884249,1.8926714245184384
3.56,4.2346674088396075,-7.489249632446843,2.158627865030951
3.57,4.211939887507234,-7.935207406894922,2.5833272707815103
3.58,4.236697529522664,-8.074795947644418,2.442840814169643
3.59,4.2014448838360945,-7.749628556640242,2.393041711107925
3.6,4.171019625688762,-7.27987664265394,2.453780134232065
3.61,4.295884090397964,-6.952451789871827,2.3308562773943824
3.62,4.499333539378552,-6.907872040434513,2.096766516337192
3.63,4.830596070380051,-7.087296117326586,1.8956222223069303
3.64,5.273661039543987,-7.262196951005348,1.8349528575420329
3.65,5.447674679012488,-7.279491442235836,1.8525218540165538
3.66,5.313134631803943,-7.177375900668181,1.863134177805548
3.67,5.218097877079661,-7.187974244529721,1.7177500120141644
3.68,4.956743148545296,-7.045376112140722,1.790930349125412
3.69,4.652019795846045,-6.861264917210996,2.0651226946907753
3.7,4.841070521340198,-6.800073969712066,2.1517387936886405
3.71,5.2262411246419855,-6.9078253703975765,2.120011923376158
3.72,5.553757256390987,-7.012504844046618,2.222604907367473
3.73,5.607276188718446,-7.095854707095518,2.364851231870699
3.74,5.533529666932874,-7.200728043767522,2.4597787524529733
3.75,5.513222677853927,-7.249531819613945,2.521754273315316
3.76,5.612611815133294,-7.209142286094331,2.615036621683997
3.77,5.69529869891921,-7.240893681051649,2.7147811855966077
3.78,5.7044556157186195,-7.32386316971172,2.7509994035375875
3.79,5.590775419478008,-7.452043032400269,2.737678075303857
3.8,5.38079735670831,-7.510458909603627,2.8383355451634626
3.81,5.243243346442741,-7.550982855252102,2.9580232647018283
3.82,5.3335985167235345,-7.685100288827327,2.8997788681009893
3.83,5.497790306635766,-7.938367229106492,2.678302944662631
3.84,5.461079753285525,-8.315848258077303,2.547269302540357
3.85,5.376413064331791,-8.682010011721879,2.5074395153915447
3.86,5.635791989321132,-8.780311957791131,2.2893135502874458
3.87,6.081893816952291,-8.347264229484733,2.1220436747561733
3.88,6.29865117450288,-7.792995714863854,2.0011628222770224
3.89,6.191530195415339,-7.42393366588387,2.099862144947707
3.9,6.0486422625480145,-7.274098550182484,2.25857455835305
3.91,6.024114278856187,-7.269472283957194,2.3454257547916244
3.92,6.187302109273916,-7.447232450161743,2.43845183545668
3.93,6.39603355629469,-7.623998071580037,2.587308359690758
3.94,6.4959328731583685,-7.7577857486576685,2.7324725655834663
3.95,6.452529395776048,-7.9097441729428555,2.8672508275994817
3.96,6.224942828124595,-8.172014489474277,2.9988381485158415
3.97,5.9971395282535385,-8.47235080099029,3.0897587392470496
3.98,5.955278665221167,-8.641835490080249,3.0088261402557146
3.99,5.961240840414569,-8.66503494341228,2.878201714944152
4.0,5.858167020623876,-8.626893616914208,2.7798685265593557
4.01,5.650267587517002,-8.575998172501155,2.6850235392174575
4.02,5.4458330445669025,-8.4936832009961,2.6307284537988678
4.03,5.36416612683859,-8.454776566963202,2.540277986529934
4.04,5.239130630001707,-8.470037085284138,2.535571068069637
4.05,4.985275682989419,-8.441209021056164,2.694986874934505
4.06,4.792287252709708,-8.462611666482779,2.639712395255231
4.07,4.651503570691564,-8.35191730098948,2.3379077678636953
4.08,4.5974443600741415,-8.108599740836256,2.099223165616384
4.09,4.599416240922195,-7.848638717801543,1.929502107168481
4.1,4.524666359178888,-7.6359492865543475,1.797363138918218
4.11,4.357509904524503,-7.575510249236179,1.731042092850693
4.12,4.2114524528628285,-7.71519130979944,1.70839573914681
4.13,4.280212054394952,-8.009698004451122,1.7110709527125965
4.14,4.372705294299024,-8.355387502435141,1.8863122942606285
4.15,4.451792533070887,-8.590096281433114,2.1180205228169866
4.16,4.62303342807631,-8.653317173136836,2.316741804637324
4.17,4.718239433139864,-8.551110236507235,2.4342842816312236
4.18,4.770705730619042,-8.400389015444778,2.3630287226875044
4.19,4.935985857529332,-8.335456744768388,2.261518278000937
4.2,5.204261502416023,-8.373440761739719,2.2713340591361444
4.21,5.549063088665363,-8.468408506786947,2.2701868525494864
4.22,5.939931700275779,-8.633905371787444,2.309255130068149
4.23,6.15581330648972,-8.837973211381938,2.4148483505732896
4.24,6.086222579746759,-8.918827968952732,2.568666784114324
4.25,5.8397845615301085,-8.8110393272059,2.467102610388752
4.26,5.4813801647300915,-8.547426780994117,2.2831349866918544
4.27,5.167458008353074,-8.172317631838618,2.202118992336181
4.28,4.906051859944695,-7.759666831158609,2.059306895131239
4.29,4.576328909337522,-7.478668069865862,1.8655691241801649
4.3,4.167312220181582,-7.448272884931766,1.8123236806548038
4.31,3.806165307071771,-7.608778304963961,1.9086556948270856
4.32,3.666841008423712,-7.822968859002038,1.935381080008126
4.33,3.6192354534393707,-7.964168589727517,1.877404280354327
4.34,3.499055690312265,-7.918538726382078,1.8288656262030862
4.35,3.342863815113683,-7.729518349259516,1.7715364644384137
4.36,3.203289383555911,-7.608105695082007,1.8021974050837053
4.37,3.2392724735944483,-7.718062898293594,2.03931991746361
4.38,3.6609193726768106,-7.9831557502194785,2.333831292889243
4.39,4.426157106238123,-8.312147886184984,2.514301500055863
4.4,5.174944430188709,-8.669603572885451,2.6145947234582234
4.41,5.589595264290776,-8.973603834603793,2.6886970138272726
4.42,5.644603733488835,-9.090330228191464,2.7634795664920286
4.43,5.594609027027412,-8.910724559451795,2.7453145509577337
4.44,5.682411274134047,-8.608217025660455,2.5825151826778305
4.45,5.904675072237335,-8.504662399109925,2.4479677254732968
4.46,6.112528837716374,-8.733152284837034,2.4291229913794
4.47,6.18464118527587,-9.024465526525455,2.434277261280822
4.48,6.116675468858506,-9.064983100218635,2.406631987991061
4.49,6.039868280169464,-8.839041191345498,2.338258137239723
4.5,6.010745875840689,-8.492445101933107,2.2404560983942874
4.51,5.917490454986032,-8.145910494238075,2.160171812318896
4.52,5.749448208688194,-7.949388830679367,2.1985944625318536
4.53,5.454716837464875,-7.929091296186828,2.3848546935250554
4.54,5.074207138204484,-7.837000195837965,2.563835167664755
4.55,4.844461717212994,-7.639194047906602,2.6085859477643787
4.56,4.728182783636081,-7.509344807416619,2.5747715723202296
4.57,4.6288179838765044,-7.514119513950843,2.57238325768323
4.58,4.603145620295148,-7.560774608284857,2.527794159208418
4.59,4.715072024143571,-7.555865051717206,2.414045731506188
4.6,4.971502426281974,-7.589729776073028,2.3415887291558297
4.61,5.201540760904622,-7.720049337028334,2.26960100369736
4.62,5.2773859103406915,-7.876661360335848,2.2173242483966997
4.63,5.236167809088526,-8.008798140841677,2.2845127923609914
4.64,5.054398973283117,-8.139653478816468,2.500965148371868
4.65,4.741064782239316,-8.279165051330551,2.6265464349561656
4.66,4.581644936683872,-8.326783778966435,2.441400526745232
4.67,4.77365984335597,-8.241679846694636,2.1643740095616826
4.68,5.174664882335295,-8.129888549270976,1.9835292837965386
4.69,5.626531688112134,-8.137929880017833,1.9143056283672373
4.7,5.904770490785242,-8.291262996355023,1.9167354527888938
4.71,5.878521223498055,-8.497270590261815,2.016184054108069
4.72,5.658494178319954,-8.768312198736282,2.273238073191857
4.73,5.366742419619243,-9.05495263620418,2.596743361079147
4.74,5.107046664401769,-9.248845551999267,2.759305397462537
4.75,4.8596264797419835,-9.256839107329377,2.7515800653179276
4.76,4.628194596873224,-9.040727922511087,2.6060534607997816
4.77,4.4905690638544975,-8.62262988303077,2.3524691547786607
4.78,4.352449223832829,-8.145890971946418,2.19079753394619
4.79,4.157200158951783,-7.683384787002762,2.184786009135908
4.8,3.915425627021034,-7.316796838276183,2.2936840745052613
4.81,3.6701417280883017,-7.1163048130558115,2.487237838036866
4.82,3.567120722112085,-7.009881937530063,2.719762170190744
4.83,3.628414451162136,-6.919815112984079,2.8760390919278387
4.84,3.7205947100397867,-6.847486782814418,2.97853264357146
4.85,3.755923509894759,-6.8795356995807495,2.9926823450551114
4.86,3.747968222135531,-7.026518605898074,2.873525795557718
4.87,3.8497913532680372,-7.24178645976421,2.7018090538793684
4.88,4.181646431861076,-7.519667484321159,2.5359580782438296
4.89,4.665630703621313,-7.865713694280777,2.4440346449598898
4.9,5.236297404494727,-8.333238917837825,2.439591435934325
4.91,5.78742962806166,-8.742068217246473,2.6981036754925345
4.92,5.910763377083814,-8.464401444374548,2.9415088079628458
4.93,5.521139005313761,-7.686689258182616,2.866061582766076
4.94,5.131554545124588,-7.287548344149626,2.7398475731945187
4.95,4.861542699985158,-7.258767538590048,2.659047146685536
4.96,4.751717936703588,-7.293695657122945,2.59159541968864
4.97,4.80605691620695,-7.123102756570925,2.7201714966558885
4.98,4.910039405350522,-7.0085791089281,3.0460195230007576
4.99,4.991083429583302,-7.193812971339816,3.2175220211129596
5.0,4.922064801367891,-7.516332374691547,3.258534734169673
5.01,4.757964741354866,-7.67233252507634,3.3126350953123214
5.02,4.667794785400551,-7.680492690947512,3.3955179799593305
5.03,4.655976892161526,-7.730148078784936,3.4397245243711883
5.04,4.696931687058608,-7.935753366228453,3.4824747554474165
5.05,4.799816898954031,-8.288487670381397,3.581615542743555
5.06,4.855351670695192,-8.634208246162943,3.733643968194779
5.07,4.9671642965509815,-8.75902544370562,3.8694382018629616
5.08,5.128702665845083,-8.803010117273198,3.877184975647014
5.09,4.980248558779236,-8.78110517461931,3.7311386507230093
5.1,4.836303491189835,-8.348584801007517,3.530532611552436
5.11,4.926226843178935,-7.752555350921205,3.335261651908485
5.12,4.932322299622276,-7.30494220183193,3.2358350490365515
5.13,4.898702700464504,-7.042135496522891,3.212743833512796
5.14,4.9014224881580235,-6.889727274762962,3.2496175048958453
5.15,5.000151850311726,-6.813295507370905,3.392490936709079
5.16,5.111896869334108,-6.882344482734468,3.589401638248344
5.17,5.135167034044402,-7.0659481177808505,3.729003368996021
5.18,5.126995833708117,-7.264244873568915,3.8012258278847315
5.19,5.1878829037248995,-7.418640003025702,3.773137395718784
5.2,5.298332240887847,-7.478325908934757,3.5962227039804326
5.21,5.388439369670432,-7.463665852440095,3.3908471806492924
5.22,5.404465540545096,-7.480449120011337,3.2525991541283314
5.23,5.366238183540492,-7.5900438403699155,3.207342762266625
5.24,5.2672196951809855,-7.73084177831811,3.16928108443904
5.25,5.0939844483489045,-7.857809997172024,3.14840803455847
5.26,4.899228936402657,-8.004097292073373,3.176248533042772
5.27,4.710061971897849,-8.142843346411548,3.198115725422782
5.28,4.5866035735702715,-8.196611598123281,3.1699469247701737
5.29,4.6597313501950675,-8.156856607432868,3.094194166523809
5.3,4.764451050170631,-8.089232218717758,3.0427148971768547
5.31,4.902800414511215,-8.051688884273863,2.978572787999872
5.32,5.120044219535635,-8.192653802633341,2.9504219807188554
5.33,5.2131728202093575,-8.4785083319679,2.977405182260308
5.34,5.075063032090491,-8.667823593233214,3.0490818213746684
5.35,4.818055798446126,-8.716892923890923,3.134212449080648
5.36,4.500415379746036,-8.649118380936818,3.272906287845923
5.37,4.199697330002044,-8.504003120868909,3.3549583883361414
5.38,4.056765559085538,-8.405483028595246,3.3505668458448987
5.39,4.06032123188214,-8.381388739288047,3.2512535718283084
5.4,4.098258040287803,-8.426945336985112,3.1770168327355304
5.41,4.07826891680648,-8.589452241856488,3.1697275435760686
5.42,4.000794543085096,-8.740407877080479,3.139022090035284
5.43,3.9430292878302025,-8.867818194447393,2.9460662787850116
5.44,3.909880147561587,-8.964411967135701,2.855681626919381
5.45,3.917977815492265,-9.030894875674548,2.886735522435303
5.46,3.994135298096281,-9.084574032537468,3.0111633046271415
5.47,4.2536776454263565,-9.107102540909835,3.1370068944630956
5.48,4.46085050873382,-9.217476181810735,3.186331601074146
5.49,4.665593230867595,-9.148645334539404,3.1287665398440123
5.5,4.773106974477168,-8.98233047939141,3.0639823601493097
5.51,4.77732241106733,-8.82315292410561,3.042641086979614
5.52,4.784028173712165,-8.509631596759487,3.019266537500066
5.53,4.751642666961332,-8.165376261451456,2.9743736181250564
5.54,4.586771504867205,-8.028234308661842,2.9722781626733346
5.55,4.414782790711757,-7.959308772101134,2.9237607214724437
5.56,4.219546817311304,-7.938882208949885,2.876057920886341
5.57,3.919206162379361,-7.8521973471817965,2.734635146657788
5.58,3.4862154770870326,-7.692179053674612,2.6869543189387257
5.59,3.0431698980277004,-7.538741894829482,2.786151656530763
5.6,2.714605245810352,-7.364208526351348,2.83885403269382
5.61,2.6669941140888054,-7.240770616484779,2.920042560550351
5.62,2.899789508123354,-7.381365794051675,2.995914015278087
5.63,3.288483366618784,-7.786676593095571,2.994465194378776
5.64,3.5920952764128273,-8.26695734805587,3.037163656653715
5.65,3.7095330267014957,-8.675287966666334,3.1402609078088815
5.66,3.8394004720646695,-8.995719285326341,3.3088853724978016
5.67,4.024071195350267,-9.080907053797583,3.3040144125559916
5.68,4.309107229733452,-8.911513470124673,3.051100683255169
5.69,4.622362994138971,-8.721204339659904,2.8762352417566954
5.7,4.72099733483108,-8.608889934257917,2.8984586355771884
5.71,4.712277527032118,-8.560989972404041,3.06817589785282
5.72,4.80786660020037,-8.578651662671673,3.1957995662036973
5.73,4.982834754143151,-8.623390981445,3.1098829003974897
5.74,5.002319751267767,-8.651926462840166,3.075301761227063
5.75,4.862489995383191,-8.668123960792324,3.0209837565085045
5.76,4.773244246359982,-8.526749427601956,2.881477747922251
5.77,4.737843642966358,-8.375848662836416,2.7702176935800003
5.78,4.689351223026365,-8.362341294082192,2.889193152839295
5.79,4.674941109743392,-8.39914250310267,3.1416300722209463
5.8,4.769062921287003,-8.507140223437505,3.2628270054508013
5.81,4.920628111421399,-8.665413257540006,3.242731203017218
5.82,4.9810771147151796,-8.72549940879076,3.1659578309299143
5.83,4.954293483143628,-8.671097550530938,3.1261474829113163
5.84,4.820291131906959,-8.435620199737476,3.051622589020868
5.85,4.627928030313621,-8.221994133670357,2.9564866394627303
5.86,4.469889341350409,-8.269176252148908,2.8798967016522488
5.87,4.336177925694266,-8.430580644346946,2.7814708855625057
5.88,4.293282086357677,-8.570318875904197,2.64993509240708
5.89,4.370280900156689,-8.746442293063817,2.577379875931342
5.9,4.4850717703483145,-8.860434605914312,2.5381257473663204
5.91,4.61316093286986,-8.73289823772727,2.4707240476486056
5.92,4.599020950996767,-8.457823772244705,2.456534804362701
5.93,4.577505494382588,-8.274553436382098,2.5548441183393678
5.94,4.525923804750055,-8.155592229591349,2.6923507022431665
5.95,4.405830948788248,-8.119985558507107,2.8355772076740493
5.96,4.219456492801232,-8.018822897954754,2.9004389858002977
5.97,4.026194585714953,-7.856630156214781,2.936346584588818
5.98,3.8933448027022717,-7.610128411910048,2.879676676072113
5.99,3.755020098236088,-7.457412910481329,2.7350440500781796
6.0,3.639182754732796,-7.488264111589403,2.719600192354834
6.01,3.6087157484537524,-7.619910949559656,2.9218886144739358
6.02,3.6563490125017064,-7.800126115148073,3.0874308989766392
6.03,4.0119990530752405,-7.9861230535244205,3.1010717088488304
6.04,4.327806515815567,-8.145370002229427,3.097192455471515
6.05,4.445035298210014,-8.142536227591393,3.2191939109405445
6.06,4.58979397424937,-8.062015546865004,3.305176603398274
6.07,4.633450943525967,-8.190626873202659,3.2924425757671374
6.08,4.637523287543414,-8.201960869109326,3.30282209576026
6.09,4.749986190548626,-8.069630667192621,3.2830604311949343
6.1,4.780229297024857,-8.660065945244071,3.4878868848796745
6.11,4.9495128284258785,-9.879172298882652,4.16661123780919
6.12,5.280723244640624,-9.85103385167226,3.882792726688687
6.13,5.3287760805902185,-8.413955868098562,3.295206897000759
6.14,4.865954363920271,-7.613861308245367,2.9962129003949993
6.15,4.473994625978583,-7.415773003745092,2.7416337878709633
6.16,4.2412723926709734,-7.474918088741842,2.7122518646120333
6.17,3.9387386655640917,-7.319549201933846,2.7132971636497207
6.18,3.7044400976036593,-7.077043625182875,2.6668022971488354
6.19,3.545304952656028,-7.019043301637442,2.6821100465985928
6.2,3.5347525551029415,-6.966144326336523,2.744724032968079
6.21,3.8292692554155923,-6.8161875833294925,2.549850570666786
6.22,4.55906816082264,-6.680950913931573,2.230171081560496
6.23,4.952475722164217,-6.650905783013349,2.506727055382509
6.24,5.0114067209693784,-6.754097498568286,2.966053267486947
6.25,5.171308513978024,-7.037141131601152,3.24424650837935
6.26,5.2550872938244115,-7.308667543145128,3.403126653038075
6.27,5.20501623277143,-7.555332346600138,3.6733741338161443
6.28,5.058033598437593,-7.773604209252303,3.872182081808755
6.29,5.011159390663524,-7.888983734248967,3.7427074155425424
6.3,5.141999159111901,-8.067940165262764,3.4518776392765194
6.31,5.338622992299779,-8.484063872844933,3.1843150222508063
6.32,5.244956168896739,-8.718106358190738,3.0799239964657437
6.33,5.011048956193062,-8.622658126774514,3.2580011954605093
6.34,4.802425964118813,-8.383330659970877,3.456194233538962
6.35,4.63785333681162,-8.197652936749302,3.5302251977135253
6.36,4.62008369021243,-8.060522760875982,3.5768453056723097
6.37,4.619911378479004,-7.9724059134604754,3.6451054297521632
6.38,4.695836288301145,-7.8650174412508065,3.78936200840475
6.39,4.7905388113951615,-7.769749961563765,3.8707339541254058
6.4,4.846580573761981,-7.742774060206527,3.9586465524817918
6.41,4.882707799884547,-7.657899862466738,4.012151020144945
6.42,4.911883480072502,-7.493357140227564,3.9166845950042246
6.43,4.923927853200567,-7.267982218224218,3.7560944743617863
6.44,4.893710374306651,-7.02503891053185,3.563305969677063
6.45,4.815266980541637,-6.8327866209772585,3.34212758078575
6.46,4.804848034222679,-6.755794364146655,3.157231348153325
6.47,4.8295586972098254,-6.849239548530918,2.968919081576937
6.48,4.85420500643383,-7.097686996704665,2.8950417931641166
6.49,4.925659539358726,-7.429499456307417,2.9244745019729974
6.5,5.090779581920828,-7.740920132389104,2.9583923720048637
6.51,5.310638149662487,-7.999992468587326,3.021731701800931
6.52,5.469699332126565,-8.32695557484971,3.144958504549109
6.53,5.413553370559116,-8.588050459825835,3.2043233308199754
6.54,5.193861504733374,-8.702837870793017,3.2829531570476784
6.55,4.897197916159447,-8.584307407852071,3.4175402286864434
6.56,4.672505932378004,-8.249442753897267,3.4239503741355843
6.57,4.5209215885386715,-7.931639600882721,3.345018955350611
6.58,4.398621831789462,-7.86467965401148,3.270311226969356
6.59,4.252713305203464,-7.936828251530641,3.2952423063861573
6.6,4.153623913625063,-8.1428685836513,3.2398195329435526
6.61,4.031217545068957,-8.468545903474675,3.218022079782935
6.62,3.8873052094754805,-8.78787197642959,3.4113809737016134
6.63,3.7888486796199414,-9.07219390032518,3.59786648558335
6.64,3.671869595136835,-9.274094141479369,3.726105302923897
6.65,3.7244146677257577,-9.273971004112468,3.717145016887901
6.66,4.043093983997688,-9.116645661074807,3.7119258035388616
6.67,4.3327282147620645,-9.062176209007514,3.7458695051306172
6.68,4.491657882225988,-9.143027123173283,3.7273897799459257
6.69,4.565903302084002,-9.330195083267146,3.6232155867423033
6.7,4.608246734920106,-9.348589978003949,3.5360456471628305
6.71,4.529813659769214,-9.079326181664914,3.4384692389156624
6.72,4.416446184687679,-8.805207617538336,3.546975910363064
6.73,4.30871182063645,-8.187701892728615,3.4308356186250695
6.74,4.1839320714847315,-7.659589633613453,3.2363158853949554
6.75,4.025845635191977,-7.425749666490946,3.1655958753952613
6.76,3.7719646063988885,-7.34777019016489,3.116672908302897
6.77,3.575947210596471,-7.302992356151763,3.1193903446652262
6.78,3.584718949086689,-7.26908640864917,3.114664356192609
6.79,3.6999964818886797,-7.299097503614079,3.116409364785504
6.8,3.847425211479918,-7.398040265494152,3.137404623009291
6.81,3.9477687777302233,-7.452760053429206,3.1912361467364074
6.82,3.951382551157746,-7.391373473674734,3.1720876255096315
6.83,3.902508809733282,-7.278004316311925,3.25143624390316
6.84,3.894487989716194,-7.2203125168739115,3.3120786997705576
6.85,3.9847674697263296,-7.292389273545583,3.3580143858411984
6.86,4.140664675519102,-7.534789647213422,3.292411634404922
6.87,4.3246190086728795,-7.876197849161514,3.2854731294537247
6.88,4.505051392669572,-8.240536201032182,3.4651266827063374
6.89,4.583628863941262,-8.587324440996293,3.5808982034844266
6.9,4.632813344648732,-8.909923355849513,3.54799929228931
6.91,4.618928830066774,-9.198308356984663,3.5592744210602465
6.92,4.591832219860404,-9.344417588584442,3.5433605100102943
6.93,4.600086296672606,-9.315992451848972,3.4290331729530843
6.94,4.606776194427552,-9.18275163251171,3.334246636479631
6.95,4.64464608225489,-8.981041103762788,3.3154754613635706
6.96,4.76428198983338,-8.776171797808642,3.3663855379558645
6.97,4.909372593415016,-8.662300070060349,3.437124949447981
6.98,5.047163621336666,-8.633415488314327,3.524448095466143
6.99,5.169035525125591,-8.619482763239182,3.54536228934045
7.0,5.2038068366011245,-8.683227163022368,3.5973182321107164
7.01,5.161928320844014,-8.76985141056342,3.627959155221045
7.02,5.005043542482184,-8.780152612822869,3.5402626387100313
7.03,4.6895048879622765,-8.678354356435571,3.4508613541919573
7.04,4.4171877995684055,-8.422270041254624,3.353324801592447
7.05,4.371425041642216,-8.166109810523144,3.1274974365782695
7.06,4.378777130752997,-7.939707578677581,2.936827715257387
7.07,4.297290527299135,-7.729121373920331,2.876049393054033
7.08,4.158477625412188,-7.63379610218637,2.884450803534307
7.09,3.9280384306873968,-7.62611243597728,2.9405653555539746
7.1,3.6753082057002646,-7.665867384789576,2.9181877256958573
7.11,3.531143454449222,-7.721655318650825,2.853612425972775
7.12,3.5396738175065208,-7.803682561912446,2.817461453555098
7.13,3.6662674340227843,-7.889254089861195,2.690774957443381
7.14,3.831321468803885,-8.001065643267612,2.607944828909847
7.15,4.039467175396272,-8.040915198920066,2.5854228166455884
7.16,4.278313070330151,-7.942799217701425,2.5730893154913983
7.17,4.431538867535935,-7.887753146214413,2.671131591177338
7.18,4.4545107236298795,-7.957725976400536,2.8239405248604053
7.19,4.476566789806968,-8.029180326309604,2.8943205184248213
7.2,4.624827313847971,-8.093709727850753,2.865338637713726
7.21,4.783061234190069,-8.270371332079339,2.911378596440392
7.22,4.848090074129757,-8.484058143805603,3.1021750754263766
7.23,4.925364855892533,-8.645690165131828,3.2029588837109184
7.24,5.036873874432193,-8.814185517898444,3.168612522156431
7.25,5.050889040582982,-8.979477438843617,3.0847058301067682
7.26,4.973657484751867,-8.928362767930663,3.125977343847269
7.27,4.901384339193337,-8.616633974284342,3.258899607325986
7.28,4.786859918330492,-8.310867695898517,3.3986715478513605
7.29,4.58224598340809,-8.154975677405663,3.536895154735747
7.3,4.407723577767372,-8.083686812101273,3.6814570528257446
7.31,4.313994344153589,-7.999345894443158,3.766625334970913
7.32,4.234890619773779,-7.85747337712771,3.7984032569056163
7.33,4.193935977681788,-7.63371258825766,3.7758492373173382
7.34,4.10933127394369,-7.4369101281876,3.6882560928270953
7.35,4.011280690621955,-7.302893911030593,3.5986843449940924
7.36,3.8843948190735014,-7.19646916389692,3.438744937763587
7.37,3.691842519669429,-7.186764592704852,3.2470621786698324
7.38,3.5637402812548507,-7.199219582210236,3.0915897112875177
7.39,3.636415380232879,-7.170425137150368,2.941982666022008
7.4,3.8797211611674376,-7.16872493118617,2.8073568117004837
7.41,4.104652217678737,-7.228658417248916,2.714600344673602
7.42,4.260309844739237,-7.332611644195144,2.713884720448211
7.43,4.404102781177046,-7.469524308857974,2.766520162954381
7.44,4.709457277003174,-7.845429565531097,2.933711529065504
7.45,5.309843703019688,-8.491622467111071,3.3156561108522338
7.46,5.58260540294078,-8.673842329119019,3.4762087172890794
7.47,5.276431748557059,-8.408685774538538,3.441147899640178
7.48,4.947720932450375,-8.24399824571983,3.469482952497718
7.49,4.821630449636193,-8.242077427406322,3.415548296189509
7.5,4.843472860580772,-8.199355499167561,3.2631236589507155
7.51,5.009297865978557,-7.769568261404374,2.955193560980377
7.52,5.158201812997972,-7.082733086395697,2.6534291919447592
7.53,5.053207467610356,-6.7172236396702285,2.7693980684804353
7.54,4.700042519207914,-6.880044911841716,3.0903347242211363
7.55,4.237679599546126,-7.351046028403039,3.3553122023447077
7.56,3.8566550987666717,-7.832588183071208,3.6260182395261187
7.57,3.5709810701415554,-8.01648681048237,3.7319455669546593
7.58,3.4119659475761517,-7.901946884747166,3.7234498154093636
7.59,3.6564839480433307,-7.6347148490024175,3.7968545001729392
7.6,4.226867739216385,-7.377815046897937,3.785185331745203
7.61,4.8195904680998405,-7.343972124568166,3.637488841565712
7.62,5.2868074619817875,-7.542520044136116,3.529323818071803
7.63,5.50078829848496,-7.84257318958847,3.472750284397621
7.64,5.428148340626334,-8.085008893216456,3.5228497098542304
7.65,5.2578308116673025,-8.136480093909435,3.642022493755657
7.66,5.148674900618901,-8.014370631368932,3.7077867113055647
7.67,5.060674419783905,-7.876161744617035,3.713686287751881
7.68,4.95962889847667,-7.798814711911259,3.6423869074738016
7.69,4.893110058800511,-7.760868581878498,3.504903918938573
7.7,4.880154435431117,-7.734231176747453,3.3636811191001446
7.71,4.855702413909436,-7.695022155811623,3.3083309804773613
7.72,4.809472196607842,-7.611850316490463,3.341198330395679
7.73,4.801251523355395,-7.554868638254063,3.3729429612725212
7.74,4.815335529058481,-7.571704626778907,3.4240384703605398
7.75,4.807900135900057,-7.5856531161142495,3.5226421845857256
7.76,4.800069333542127,-7.552914089472756,3.579016146688842
7.77,4.7730735456877555,-7.466590284196741,3.6035740736410706
7.78,4.729648889874422,-7.445445891144295,3.619515548928484
7.79,4.702465860050943,-7.623510874554926,3.6305779898879775
7.8,4.6791186979849275,-7.983444021537484,3.6576579101354536
7.81,4.624096199774338,-8.334479901872445,3.7138380370298543
7.82,4.5817687478187485,-8.56813373419354,3.7396418316624764
7.83,4.556051977166571,-8.79629507878376,3.735591599253091
7.84,4.563677454832525,-8.96877537577926,3.6754806810772447
7.85,4.6389083776709725,-8.989560913978755,3.3752582550946943
7.86,4.588502289254974,-8.964247194555469,3.0275653643811036
7.87,4.328601955621505,-8.82765377315096,2.861017877393368
7.88,3.946859246173081,-8.628822074541157,2.848577407355537
7.89,3.5282714647813527,-8.584351970742635,2.987135121235079
7.9,3.1798328347363567,-8.769809543495239,3.2849763474660647
7.91,2.9661214681788817,-9.024815214457876,3.4444675985017392
7.92,3.001571521481673,-9.23820243969257,3.2982403292392743
7.93,3.340671847810113,-9.416267790870581,3.020202752236882
7.94,3.687994330517552,-9.535313706893541,2.8843504788506107
7.95,3.908282047177417,-9.50073790965153,2.948636106177366
7.96,4.095409037898008,-9.467480613523316,3.14415958648787
7.97,4.151269379298625,-9.579771963751657,3.4324699331808666
7.98,4.121637236771667,-9.542308870396399,3.7335528396196653
7.99,4.146109605565554,-9.48044849316974,4.001031797784389
8.0,4.1993597594200995,-9.339689984164687,4.055147209692242
8.01,4.497306490922261,-8.877229738815348,3.83410164928435
8.02,4.916493578853414,-8.192465276488457,3.506223748456771
8.03,5.0133216377474135,-7.5186607330388,3.1121594602939555
8.04,4.6141628038722695,-7.024277493756648,2.8596122439185203
8.05,3.9983880086982544,-6.692071572871398,2.8776307986048213
8.06,3.4235459844148193,-6.50618496108577,3.060131790022921
8.07,3.0632694586604154,-6.432856865122643,3.2529005594214446
8.08,2.891664112508666,-6.493539337848879,3.4300287503448006
8.09,2.816840184988234,-6.6914692499582245,3.565747253633559
8.1,2.797216233449726,-7.0574593754100325,3.5774611102030263
8.11,2.9422176474713555,-7.6474766844265005,3.5283410192660067
8.12,3.2373277527822437,-8.312128951630001,3.5367637729342483
8.13,3.6095772556815575,-8.744881497411596,3.574721474193351
8.14,3.953976429617705,-8.907599827819515,3.5483540694708937
8.15,4.143757896382418,-8.85243120932848,3.479015147499226
8.16,4.23647628153766,-8.684872968673314,3.472709784357398
8.17,4.307518674119145,-8.573735752920262,3.5662688211433102
8.18,4.409743206551515,-8.624382533115023,3.654298362957705
8.19,4.533514858985652,-8.817254425156571,3.7272294825582213
8.2,4.708529437262734,-9.05786613994991,3.795198818749462
8.21,5.0268797528092435,-9.253398240410188,3.7392392297380357
8.22,5.266888199767917,-9.388757320688967,3.525569201551893
8.23,5.2588921146396554,-9.485606974286757,3.378968438208927
8.24,5.163484543222484,-9.469214876982646,3.312025174811199
8.25,5.019412218838836,-9.196088836909142,3.099511230416282
8.26,4.766599365586143,-8.81909041991461,2.943182585256373
8.27,4.483251596202352,-8.435080287974518,2.826113970535214
8.28,4.281049411444943,-8.117278751902878,2.6992790404566565
8.29,4.106014512583675,-7.96625262543477,2.7102185759186783
8.3,3.9158007555671697,-7.934198214248624,2.8143047429282255
8.31,3.8464615930115014,-7.952858996676042,2.885910127005819
8.32,3.9408825902859674,-7.931195686275683,2.8689525870967203
8.33,4.085494245978257,-7.700264423455059,2.8025142579424362
8.34,4.095647201829135,-7.4043161924166485,2.8194730445365637
8.35,3.8744500076246253,-7.187747327552731,2.926202600638517
8.36,3.6551954020109134,-7.028248748921918,2.9811352754959843
8.37,3.5451001040487156,-6.984924988724241,2.968595890569907
8.38,3.5001850188489065,-7.063779892530056,2.9549510074122107
8.39,3.598702480464528,-7.174839438418719,3.0355475122952615
8.4,3.848324858141956,-7.31291735415978,2.9653796017800835
8.41,4.1523104490304705,-7.524523853683505,2.802163944576239
8.42,4.375735590614513,-7.953514309321234,2.8413713477374856
8.43,4.6747114214339325,-8.421057266704718,3.0158051352060005
8.44,4.785179377320212,-8.91147570307658,3.2135114470611237
8.45,4.7519957637761845,-9.407467502488116,3.4891395592013823
8.46,4.639237539618124,-9.76441054073227,3.8401257935517665
8.47,4.6299393589336635,-9.82245890208587,4.088356732221248
8.48,4.690521939087655,-9.793746086172181,4.0972612269962285
8.49,4.652934597025425,-9.827489917470988,4.066750274343191
8.5,4.633151679242234,-9.709855141803795,3.9444861965956965
8.51,4.589217394221377,-9.425776953813363,3.7852698344796516
8.52,4.5147797772461224,-9.161552743967887,3.584862950642329
8.53,4.249383677957234,-9.146703714910153,3.638315541187888
8.54,4.016067660647965,-9.266945970849514,3.8567095477541526
8.55,3.8298245684502894,-9.073708892890435,3.650505169464865
8.56,3.3745970328274604,-8.902751048222807,3.9144160429068164
8.57,2.991440618000988,-8.567010641369487,4.146375764674861
8.58,2.805903084710268,-8.011323445470833,3.7753492638917368
8.59,3.358546570265956,-7.234786961038981,2.6553858373194026
8.6,3.9103905831117354,-6.718311721158366,2.0197747739966387
8.61,4.071820016021377,-6.620485687094446,2.0592624972409377
8.62,4.09054178085111,-6.7349299998461545,2.0263511942145134
8.63,4.15010334626295,-6.810231277350418,2.1064596066346204
8.64,4.299404460722485,-6.826428566674367,2.35306423071816
8.65,4.264348836003006,-6.884764814101011,2.6407111907649248
8.66,4.127563714086598,-6.962622098017928,2.8791764130421855
8.67,4.097925025159673,-7.053401038736405,3.128595855605183
8.68,4.270473470483192,-7.3357463893560615,3.2802912829361035
8.69,4.536341476773884,-7.728775508783575,3.2289190479723797
8.7,4.8167541825134474,-8.038105857140566,2.9951502822421046
8.71,4.992480328781808,-7.918852763905954,3.063159613382314
8.72,5.0418489749431705,-7.457057794260299,3.005700428673562
8.73,4.9647668992257525,-7.163715839226362,2.8449464661025567
8.74,4.732832088515655,-7.276239473022965,2.8059028662400114
8.75,4.514232302403145,-7.445702742872894,2.961419874861151
8.76,4.514667009006773,-7.8373930000968155,3.185981720911411
8.77,4.704888616476594,-8.232687733293547,3.4194801640791432
8.78,5.037571988792362,-8.354537956985965,3.7034253466663944
8.79,5.133771475930856,-8.234518639223714,3.968257161339967
8.8,4.935249964313127,-8.020190097240652,4.057241352053212
8.81,4.499469595481506,-7.939183720159444,4.245871144524478
8.82,3.948436885453642,-8.100591943425032,4.156719117762568
8.83,3.8732147799621166,-8.31939848078312,3.641001735534485
8.84,3.8411129371230683,-8.689574927841361,3.466510896844073
8.85,3.68886162751429,-8.715865271046294,3.3870387649683305
8.86,3.7546920173583858,-8.33582119960299,3.3010861054721974
8.87,4.079074222749962,-8.005765535169417,3.0232347898725545
8.88,4.223217262717808,-7.849777002780641,2.8683838408713034
8.89,4.315147192743781,-7.7585660525948485,3.012546670501224
8.9,4.351236489319975,-7.825011679568922,3.2061025526431686
8.91,4.285878036367347,-7.880457828268321,3.390754105560258
8.92,4.2380374953766395,-7.94542828587791,3.567799613538476
8.93,3.959886642429916,-7.979879806384815,3.7873893540062666
8.94,3.859769807157871,-7.768075817832501,3.7126183737801663
8.95,3.8308436028148347,-7.607905132252938,3.5852808382877357
8.96,3.8887814893959614,-7.547193125907539,3.6373079097112027
8.97,4.160816065990805,-7.635199874505959,3.6328376214806726
8.98,4.460341665709026,-7.8547941494108775,3.565793577510664
8.99,4.76675234644489,-8.168872015504347,3.5555341623462784
9.0,5.084879198453682,-8.48917261771806,3.66035279817281
9.01,5.314666413996418,-8.897066850519746,3.8980607832284626
9.02,5.441904337484087,-9.333923176993745,4.028861064495894
9.03,5.322174037871819,-9.589357163293709,4.099482191789718
9.04,5.066286135894382,-9.50809028516172,4.098520183513707
9.05,4.868269601203294,-9.144670999394641,3.876609767529137
9.06,4.585580177514386,-8.995679294945614,3.8355429359411417
9.07,4.267145647078168,-8.757487283186066,3.762459601086928
9.08,4.0298742565681405,-8.599114459468291,3.5096637877974515
9.09,3.7627546421972133,-8.621328848185193,3.416096457137421
9.1,3.611317925092865,-8.454844032278139,3.325409327721083
9.11,3.6676346145786076,-8.353382336697226,3.148203770763445
9.12,3.4374255925331676,-8.320287501837598,2.8827095426832448
9.13,3.11467480661042,-8.39876724531642,2.8896903125893942
9.14,2.87289980751877,-8.5293465782541,2.8130549132204017
9.15,2.5139700251809596,-8.588767956854053,2.760194665830324
9.16,2.461128163507057,-8.720104261498449,3.0004553095104027
9.17,2.707020370777702,-8.988353432005209,3.0208804708550177
9.18,3.0697339371379035,-9.019162287673963,2.992688238168133
9.19,3.407325927266209,-8.860503016790553,2.9885427944145766
9.2,3.7557972554190595,-8.705377778094718,3.0807527862478317
9.21,3.8698989461177056,-8.616525297220836,3.283653435692602
9.22,3.829297171914737,-8.558022299467444,3.5155539398003994
9.23,3.7914654248007507,-8.621711857821138,3.4655944936600944
9.24,3.846652975275706,-8.836861418641012,3.585356759343267
9.25,3.869279316445124,-8.960556662329228,3.6860793909442098
9.26,3.8607280835176723,-8.800932664804883,3.599915413110339
9.27,3.8678628158305686,-8.404154557302281,3.344844368193691
9.28,3.754469954762704,-7.938058090611818,3.11396897610563
9.29,3.438570048017654,-7.507837394718199,3.168690544217769
9.3,3.0689965451940813,-7.3388711157097015,3.230987818941699
9.31,2.7479804286049783,-7.463152212580638,3.2713754327118343
9.32,2.5087518293088373,-7.707097773664387,3.3522021252121528
9.33,2.5550035916167344,-7.92709705822813,3.482081781877622
9.34,2.831460135862044,-8.094727169614098,3.644994072589646
9.35,3.164388551410274,-8.213822351276477,3.6377755167543264
9.36,3.4966830315297313,-8.385897448725482,3.701741355601294
9.37,3.8305574482370774,-8.610395281103179,3.9119283773326647
9.38,4.146113302135088,-8.791121113100074,3.8945130575082594
9.39,4.376290111704144,-8.940193138263163,3.661756327346183
9.4,4.429228951208154,-9.002922460371133,3.4388163939921985
9.41,4.257506642125079,-8.877164588867338,3.345904805352818
9.42,4.059130008046638,-8.631870865616756,3.229708334899387
9.43,3.910619477098579,-8.525299678163188,3.170421777922771
9.44,3.892634472006519,-8.602767614546977,3.1051301959891453
9.45,3.9340425551013407,-8.789016989026944,3.0160612370658706
9.46,3.9293119391193887,-8.983233838767093,2.940539897375054
9.47,3.9918242015305236,-9.039081242665102,2.8762738629543465
9.48,4.125667811178292,-8.957964440201948,2.9005890312153286
9.49,4.275790853463883,-8.914843625153647,2.921885151635136
9.5,4.358624110433236,-8.962280365045924,2.898003627973239
9.51,4.331584247206504,-8.959207433273162,3.0849324621655914
9.52,4.3406305918849135,-8.83324207351866,3.253098145114739
9.53,4.309705660153513,-8.838606118965707,3.363530877047113
9.54,4.264989443102798,-8.824036152269633,3.3476137236870374
9.55,4.236434241089508,-8.81624333892763,3.289200914400849
9.56,4.1496470187104535,-8.787173855625795,3.2391207042682932
9.57,4.013682891888831,-8.660754227290184,3.1419242505914338
9.58,3.825674914096467,-8.383278586754072,3.2463668404174975
9.59,3.67377807297196,-8.112525154474069,3.332475574142852
9.6,3.616405720274972,-7.9975595386509015,3.187564239622052
9.61,3.5608462315014258,-7.950587573271144,3.042262329592122
9.62,3.5234044020401765,-7.934840551530634,3.0344741639773303
9.63,3.6292963422853073,-7.863184451132572,3.0562455965096094
9.64,3.7197436594313205,-7.807649793562755,3.10230711160478
9.65,3.8132632232051353,-7.8696740470843745,3.102268725929914
9.66,3.787011546150269,-8.111367860853514,3.0829508484386823
9.67,3.73874131150708,-8.451978850577289,3.0951869947914474
9.68,3.718097082662486,-8.775666052202064,3.053891218168474
9.69,3.7706241018031803,-8.971277658642377,3.064118499600078
9.7,3.865440753943266,-9.131462572781146,3.018055714255242
9.71,3.854004523231193,-9.331165657634939,3.032869987767892
9.72,3.8455566015624854,-9.391877702025873,2.9792317773456944
9.73,3.9567794069866187,-9.267246831932646,2.9281512632874507
9.74,3.8991294968222445,-9.327177242906483,3.207297643154524
9.75,3.7823490641478177,-9.67537726279445,3.9956756796768955
9.76,3.833709771790965,-9.201917996417004,3.907431240953079
9.77,3.6412950245096023,-8.54373832603018,3.9723343936966087
9.78,3.4722230707001747,-8.036666352247082,3.9118300900352763
9.79,3.477129045900901,-7.616338157208862,3.6112398621435737
9.8,3.567376286088423,-7.340367554037041,3.230848309413512
9.81,3.578333008227188,-7.239161342106838,2.843244366124329
9.82,3.4553471322634937,-7.233557294612043,2.7187632922476954
9.83,3.3626253654745732,-7.214796195994695,2.7712066955257195
9.84,3.473474808232908,-7.12568496587681,2.74195815516286
9.85,3.687304059758208,-7.082511060074357,2.5872818331073963
9.86,3.839827034818477,-7.073842354693665,2.6033266619036444
9.87,3.9133504939792587,-7.129035847086074,2.6952162555314447
9.88,3.8716058606243906,-7.257380577740464,2.7446283089997263
9.89,3.8323928455085015,-7.421545540833853,2.786369386418197
9.9,3.8778876533665843,-7.471294704829094,2.8512909548515695
9.91,3.9436065613202964,-7.443138205491161,2.953412791205164
9.92,4.0771168762537116,-7.581521550248986,3.1065023255645277
9.93,4.344194936004082,-7.683255666864798,3.2495122996044277
9.94,4.498913175627108,-7.544106296834384,3.450203634349609
9.95,4.466123421247636,-7.457427249416596,3.5373244386734557
9.96,4.446974509794963,-7.514250175309467,3.419394132015272
9.97,4.408241399758396,-7.586725779891864,3.378674358953828
9.98,4.214793620152879,-7.665134636469189,3.4671924521141886
9.99,4.005185287386551,-7.8285801684442715,3.4531738237291094
10.0,3.9682957550609332,-7.966934546043012,3.3759725874625235
10.01,3.968964444005761,-8.08922364375773,3.527316844975669
10.02,3.908207890697103,-8.376298956958667,3.7904344628992073
10.03,3.847120654829437,-8.8965835954781,3.981936916075632
10.04,3.8616291117040413,-9.435574020306637,3.9910951513733104
10.05,3.711793502679432,-9.755526212179142,3.9435993445174176
10.06,3.380586487010509,-9.8039035427908,3.866763787982253
10.07,3.1162209618868655,-9.54345507825897,3.6892778715076533
10.08,3.209063373667817,-9.062609222507618,3.4917017502793968
10.09,3.5100541505632625,-8.58467222415528,3.3840615384418427
10.1,3.7123798265381467,-8.205642710887572,3.298599707093975
10.11,3.7492647999019035,-7.950593721633416,3.3183513576680026
10.12,3.88094735235606,-7.75629743028878,3.419666192393344
10.13,4.094365531341689,-7.638415764889398,3.461303813461601
10.14,4.264231526084957,-7.625819506591382,3.587084534079945
10.15,4.379378463023427,-7.715780264456213,3.704943999394205
10.16,4.365780082746812,-7.8543578891502115,3.8592844311878842
10.17,4.2445647371482105,-8.04033979482376,4.080410676543197
10.18,4.183104465640016,-8.265202805906913,4.2094054429242265
10.19,4.248308207444139,-8.492356331057822,4.230274880828842
10.2,4.431555380652696,-8.704640872174382,4.215754367945032
10.21,4.6025391685369215,-8.928764334582677,4.154943303622284
10.22,4.676402546698225,-9.05905783370472,4.118612440616824
10.23,4.648979667329347,-9.12837895813476,4.066376371499972
10.24,4.521593220764428,-9.140665725629738,4.028669424951286
10.25,4.296852377845199,-9.053137473565304,4.004556437697993
10.26,4.007840296783814,-8.86657040719554,4.015548362850004
10.27,3.6835203265703327,-8.68618679546536,4.0156779532931015
10.28,3.400653411933518,-8.608983610130528,3.988176088332294
10.29,3.27843953579544,-8.54960377637642,3.934188342284158
10.3,3.348688803958657,-8.523054571301916,3.7715779372960587
10.31,3.509790704166981,-8.651155752732919,3.5320731305183584
10.32,3.6800184762871058,-8.882333766089607,3.414514882884644
10.33,3.7660457773710885,-9.040910256765516,3.413821950995232
10.34,3.783159104956045,-8.945093204480582,3.384222624342362
10.35,3.7388335449205417,-8.767175162739319,3.332203675784773
10.36,3.6810484240826793,-8.639047373696503,3.3516364842507205
10.37,3.7155309035542596,-8.509848550387286,3.389151904154592
10.38,3.822528885011972,-8.411397273675169,3.4207169765301417
10.39,3.8765930558061514,-8.335681019115436,3.4018164027886706
10.4,3.815834961686273,-8.19139494536107,3.33784817821733
10.41,3.700260986155724,-7.958159621864863,3.308324968240454
10.42,3.596323559182319,-7.677542429798252,3.2044959480222563
10.43,3.537360393481175,-7.4147862403327505,3.021940911618608
10.44,3.5060694209092977,-7.215688035850392,2.8968171188926584
10.45,3.4794404897597784,-7.120100651775685,2.861164420462433
10.46,3.4682775492399767,-7.183846978041813,2.912665625483139
10.47,3.498973860317348,-7.405038991801644,2.970455081836329
10.48,3.6193722747374864,-7.637828482946846,3.0522646332421877
10.49,3.827980714203965,-7.671551503810828,3.2851931281661466
10.5,4.069136591298744,-7.548679542960095,3.5480370162100754
10.51,4.2805049247809235,-7.540748151462,3.772372274449921
10.52,4.419889116732804,-7.776635043585424,3.9720644597668544
10.53,4.482354409478835,-8.126720067570442,4.04011847803862
10.54,4.490509024772367,-8.432161762428729,3.970859679381292
10.55,4.49595559062889,-8.650986129449524,3.8389058989850997
10.56,4.48880771827405,-8.771791015404544,3.686579514444356
10.57,4.398488288557465,-8.807680444938287,3.5826051390566516
10.58,4.2293510789356255,-8.86295101192097,3.535998478273214
10.59,4.055044351638105,-9.008095820592596,3.481578259725647
10.6,3.9650534200614307,-9.20820654699059,3.4879653536553996
10.61,3.9510235702004106,-9.34248085305668,3.490780703514896
10.62,3.972215992379555,-9.33091057741649,3.4532896775786828
10.63,3.9973631281054836,-9.183047514314623,3.4031596747149617
10.64,3.9816396844624093,-8.92901722814113,3.3156272236904623
10.65,3.934659691997194,-8.633264297814963,3.3343679046637185
10.66,3.8760520538515877,-8.343629092774988,3.482978792933989
10.67,3.8238855340738875,-8.074873038027297,3.7042214948061356
10.68,3.715405583770126,-7.800484587218361,3.9070662325448
10.69,3.5548763753029604,-7.596719811868508,3.9976934978865186
10.7,3.4793322343144246,-7.488075446954703,3.9112626795869905
10.71,3.514639499105776,-7.401950694813661,3.624130111185897
10.72,3.6001207242337077,-7.366123704082882,3.3108145212712987
10.73,3.7088295914731804,-7.353534367005297,3.1535846208183225
10.74,3.816290911556568,-7.426998974588265,3.122487877655029
10.75,3.9210827078696346,-7.660673889597306,3.1225540430011276
10.76,4.070499992107639,-7.976494135302962,3.2188472558264025
10.77,4.3331179859708895,-8.279687817744783,3.3385329023709263
10.78,4.6634630944564055,-8.500925105035824,3.3249127815034036
10.79,4.925899500629196,-8.619244229377555,3.39764997613976
10.8,5.092913167702196,-8.66117194759228,3.5611107733257548
10.81,5.09909338819734,-8.735394158001867,3.684369178237437
10.82,4.855016892247674,-8.925625375493068,3.88172473239234
10.83,4.571434122025056,-9.223221041050385,4.10835767732961
10.84,4.5151872784605285,-9.490452623793743,4.093099775923505
10.85,4.491293883611551,-9.780981967620765,3.856484199842332
10.86,4.296661416125977,-10.016642704280727,3.615498563088761
10.87,4.022572250621335,-9.95997497362807,3.392625412103801
10.88,3.6220232184555483,-9.628762931443125,3.2979020005665136
10.89,3.284783714266214,-9.091203004973018,3.3360328274995354
10.9,3.052554796699027,-8.554356754734542,3.305959284239264
10.91,2.8576581265510064,-8.128197123123737,3.176625490531744
10.92,2.779534845982189,-7.785924908427924,3.0113012903393446
10.93,2.7976930591789753,-7.609357152650112,2.956915545895343
10.94,2.9155967565054133,-7.61653638582323,3.129315667280185
10.95,3.1426081108949857,-7.784008825670424,3.363288234365463
10.96,3.358745629494855,-7.799281686565749,3.366752442765798
10.97,3.4891078647067997,-7.598869440978896,3.3563857187905204
10.98,3.614343640538779,-7.4586017776713165,3.406036661712276
10.99,3.818764097116217,-7.412124847201375,3.327382629357641
11.0,3.9082060152796383,-7.524044517756942,3.384160130020303
11.01,3.893831451746615,-7.618382526787668,3.4347594906625165
11.02,3.8605213928975695,-7.533640528788908,3.3821361164841974
11.03,3.932844445642104,-7.344402220751391,3.273074128111319
11.04,3.9897925340939575,-7.348364221775585,3.231719246546584
11.05,3.8983632439754428,-7.575545529310593,3.4307233411978957
11.06,3.845848598372434,-7.798463920148957,3.586524916023027
11.07,4.043419634810282,-7.82623737573597,3.698451534868764
11.08,4.338993257311381,-7.7452920313257705,3.9131012158530782
11.09,4.39980195615104,-7.828318091721978,4.132573039550615
11.1,4.356475846308582,-8.057708128344844,3.991998992358348
11.11,4.446338807598156,-8.163113402622319,3.638010225129162
11.12,4.582685162076595,-8.150827942339882,3.4890021297819143
11.13,4.598336479841363,-8.322494779385595,3.4821462332662185
11.14,4.696500865910204,-8.66815354194282,3.377648595024514
11.15,4.821364658277261,-8.998969855308676,3.4570397206026153
11.16,4.59402749217221,-9.138547269351196,3.9155277026757975
11.17,4.157443474310621,-9.135022217275361,4.136959318528528
11.18,3.7239683192373714,-9.024679498095896,4.473256019139119
11.19,3.413384486334197,-8.749441008438488,4.667888906964041
11.2,3.2454903884842254,-8.338387479955875,4.467736653581141
11.21,3.3004829433729244,-7.915196242989621,4.1118622165803815
11.22,3.585769995313414,-7.465827967433067,3.6903702232880606
11.23,3.788233135119584,-7.032937551131066,3.331256422549184
11.24,3.7432531299807663,-6.662066597505955,3.190493008772033
11.25,3.5826769033622425,-6.468281914720689,3.1600071837300683
11.26,3.415260572998705,-6.497817101708467,3.239374669214012
11.27,3.3416404793626766,-6.679126352364814,3.3542625474196317
11.28,3.4452416399036965,-7.0255249238942294,3.457283201684741
11.29,3.6435534333059474,-7.507338746419246,3.5544654219952694
11.3,3.887534878345649,-7.9530205465287604,3.693906768501595
11.31,4.231928329743446,-8.362986251553169,3.7664774136348713
11.32,4.587748894740301,-8.646151378317207,3.7945069336883157
11.33,4.824262281093251,-8.819847883274157,3.921389032898623
11.34,4.978729767792078,-8.959632938401214,4.084483817254398
11.35,5.161783507074268,-9.109010172555163,4.2580488012828335
11.36,5.293065757382151,-9.280241383036044,4.394861520189137
11.37,5.341643439806564,-9.415205058983258,4.398292786280351
11.38,5.298142983651167,-9.525787300167112,4.336842880393216
11.39,5.131429165875239,-9.627675214860691,4.225156547010491
11.4,4.856191230334194,-9.477094743084923,4.128838213304572
11.41,4.477646277742122,-9.198271988958927,4.067709670988783
11.42,3.989873845955433,-8.927975744283696,4.070176289475336
11.43,3.4740800850539086,-8.4902913204743,4.134243499429576
11.44,3.0616192593203984,-7.880782119544783,4.041573313564612
11.45,2.8163101441038605,-7.521020099606586,3.863925731622621
11.46,2.7253104028214694,-7.401562124980512,3.6866854325058904
11.47,2.7049001393529926,-7.410813796173234,3.4859047096711935
11.48,2.807529214604797,-7.730655134780317,3.341617282914885
11.49,2.871010551113186,-7.99143367915538,3.0668577179832255
11.5,2.733662092591558,-8.165366611031352,3.1186138312803116
11.51,2.651606118061396,-8.098088950720372,3.208168021240532
11.52,2.7157526616397374,-8.116837929054162,3.1066835322728976
11.53,2.7188527195449717,-8.351128290718847,3.134443593033474
11.54,2.9068329334548575,-8.438649196583976,3.2503605910825883
11.55,3.2486446107716787,-8.477428777560492,3.1224477922531464
11.56,3.5741473646191393,-8.466790053058485,3.0204345221143876
11.57,3.741971244373045,-8.4117539832575,3.018886840715144
11.58,3.7820053023555857,-8.411900798884309,3.055273812095293
11.59,3.741804703229357,-8.455687841426613,3.156762888960166
11.6,3.7645588569634207,-8.588550619647545,3.309629660118778
11.61,3.9584873102574205,-8.828310283741585,3.599595040952363
11.62,4.26742797755983,-9.040639376108047,3.8473019893288694
11.63,4.663547753765028,-9.204287967998972,4.149366985058513
11.64,5.086247049368314,-9.27889106003365,4.388597511075518
11.65,5.336499590550014,-9.070798355197159,4.511364317516712
11.66,5.084714905841454,-8.616906085687788,4.4690795941801245
11.67,4.473795245113918,-8.23319721119213,4.251685500836256
11.68,3.718262518057286,-7.850687048176362,4.071796344003609
11.69,3.048339332093062,-7.386370164530161,3.9808402471993527
11.7,2.5308923048456964,-6.996675108929464,3.8751034420690735
11.71,2.1203377797858867,-6.79896639686743,3.660453509797449
11.72,1.9028906636401985,-6.892670107316638,3.4099234212295153
11.73,1.97552430998236,-7.1949169877468915,3.2899517254118917
11.74,2.294518728844109,-7.634358994557642,3.3013074540618748
11.75,2.7342145637363418,-8.060321004494176,3.2837806245211305
11.76,3.2916861330105465,-8.399292832151804,3.2654770602860084
11.77,3.8343551413974013,-8.718906519147101,3.1201511460106994
11.78,4.23638029337797,-8.873918053171415,3.0846469524487032
11.79,4.461389182639693,-8.89699228687322,3.1475780274143172
11.8,4.495379396194741,-8.766207222404432,3.2178433892369545
11.81,4.400561134405903,-8.606796584471109,3.2762287924797353
11.82,4.225163767718128,-8.57378665650457,3.3071538763018453
11.83,4.028498832605974,-8.725114769356496,3.4015700077379094
11.84,4.058812777783162,-9.01676731176351,3.3486246303821288
11.85,4.180958800627683,-9.388070749038464,3.1663995266094274
11.86,4.323445029284897,-9.691369388143192,3.1337316710876113
11.87,4.380492796257585,-9.934965128143757,3.2187364162474643
11.88,4.553835638602922,-10.030909698605692,3.175450548356029
11.89,4.598185167257734,-10.047232456394507,3.344576251374349
11.9,4.41799624383008,-9.93934352196683,3.6731026446221606
11.91,4.262576103426143,-9.491561413130707,3.9063615319151914
11.92,3.9650191944232924,-8.987659627365527,4.038976564293395
11.93,3.7124647589413087,-8.408372592157471,4.127617863025652
11.94,3.534958272079166,-7.983716300438963,4.007903658110797
11.95,3.3062943510323226,-7.724392551325585,3.804671220626023
11.96,3.1783995204792563,-7.57575757780982,3.5546560590326974
11.97,2.9104633328209006,-7.692520813476732,3.3716279117984214
11.98,2.6863366313725026,-7.650781124464625,3.3427467766459054
11.99,2.4036725268980312,-7.571502804482502,3.1710596153691544
12.0,2.1871274570143173,-7.5815252971973335,3.1076837030488114
12.01,2.25226105429295,-7.625010988050668,3.1920436446677174
12.02,2.3653255898109298,-7.74033525490754,3.0657803163123907
12.03,2.6318614951544124,-7.824552223183719,2.9224342428076606
12.04,2.7942352598668396,-7.9221797502855775,2.828971414782906
12.05,2.847197437217429,-8.0359041536688,2.9429273842632986
12.06,2.912517145090328,-8.218753034606914,3.1080640419721073
12.07,2.8216427715532673,-8.490305331703988,3.3663338008263044
12.08,2.9525229111880797,-8.581561538029367,3.5295730443014373
12.09,3.368342052811127,-9.304472362795117,4.777477907271323
12.1,4.05639069827816,-9.764508451846785,5.2454187369321135
12.11,4.57335514371556,-9.653599545485422,4.932393772975674
12.12,4.722982520262413,-9.838181454961992,4.889720890282109
12.13,4.703131180261338,-9.775738898297444,4.506794715358874
12.14,4.5585088752945255,-9.448702290759723,4.01029688369143
12.15,4.260173552355504,-9.15934064787061,3.4232510790302304
12.16,3.8953052411670788,-8.785253185513598,2.862955259914129
12.17,3.556777343729067,-8.40313903599103,2.7616801173197123
12.18,3.3245019197855346,-8.127868738309633,2.6350800135977495
12.19,3.4152671418327554,-7.856255317269994,2.5925043220259076
12.2,3.6535716523115718,-7.574039130102107,2.887253694355548
12.21,3.6771761956643423,-7.457976572120842,3.218865855209379
12.22,3.539673169166298,-7.39682848117007,3.270654157859654
12.23,3.539940121009422,-7.3652671209112555,3.232527610037758
12.24,3.5659746218953923,-7.254774738019071,3.3861373644714283
12.25,3.513170392468704,-7.256534815913077,3.5552599347692047
12.26,3.516675964082158,-7.450417898681372,3.7002940625620253
12.27,3.6667201702506924,-7.83967436044824,3.7951695131711345
12.28,3.848799021518117,-8.231311390289779,3.8429382493551345
12.29,3.9662554330963506,-8.132813161522163,3.7303259458464315
12.3,3.88621114969588,-7.541933738906304,3.328401574925014
12.31,3.8096901504810683,-6.877147410178727,2.9953675871354055
12.32,3.7779996316932496,-6.469041337168565,2.886166624666973
12.33,3.6998848481216626,-6.587309262508865,2.584421754002938
12.34,3.7148563518703797,-7.216312452675219,2.6462025986059095
12.35,3.533480124192133,-7.843571492155693,3.3829663056914
12.36,3.125310084516983,-8.278149416735351,3.537097375188674
12.37,2.802156772339366,-8.293201394750605,3.838578677784908
12.38,2.616928036647383,-8.179138687906534,4.240944382284557
12.39,2.431105865320059,-8.078401099103655,4.442459525090736
12.4,2.28426465501716,-7.960407000200617,4.641662783582237
12.41,2.4419746858891305,-7.940371837731611,4.6759310365131075
12.42,3.030309730060042,-7.996695155050986,4.750714288765904
12.43,3.6273861607690754,-8.134797954203222,4.744576680206326
12.44,4.192285921826849,-8.25692285875674,4.484669333848679
12.45,4.626428029669676,-8.409740639248259,4.32141942431773
12.46,4.764884342354105,-8.616900339318043,4.38618240068248
12.47,4.859729109605834,-8.74550358919212,4.584846524520543
12.48,4.6988601053974195,-8.981539113304615,5.044944034532888
12.49,4.695303846399079,-9.155901925122679,5.376820409366766
12.5,4.680566142762775,-9.362218735728952,5.361141651062298
12.51,4.914326049306019,-9.293163583274515,5.105272905994203
12.52,5.262517113796311,-9.095038992933423,4.668562976132184
12.53,5.46894735700732,-8.812145977378147,4.296946973232455
12.54,5.512879531967131,-8.663100825679077,4.119739240393029
12.55,5.4759256000681455,-8.451554013780932,3.94039904908646
12.56,5.433845310800814,-8.338192909613722,3.8939164585714585
12.57,5.191546927971673,-8.275098230867128,3.869471727936983
12.58,4.8242448181926285,-8.114159189831172,3.8902167453737464
12.59,4.322646095825013,-8.037352636899632,4.0470167284122684
12.6,3.7795747135784388,-7.952915343227947,4.079337460401502
12.61,3.3190467113235744,-7.758724325495967,3.9664533998593803
12.62,3.0349976807613586,-7.425208386471817,3.6552069737696193
12.63,2.983760873973344,-7.186404320521133,3.339233194740385
12.64,3.084782449512021,-7.192971711257009,3.153109520988594
12.65,3.1423773438650167,-7.500707321872835,3.1069226469282905
12.66,3.072528740539549,-7.828909366047707,3.0575958937136916
12.67,3.0069470962777576,-8.083027786758787,3.1135355071509285
12.68,2.946798044457161,-8.455677984294297,3.3649730801686384
12.69,3.060526439727609,-8.96379208621604,3.572643957307328
12.7,3.3032911495745405,-9.493898167746961,3.5432895065531542
12.71,3.586593451829815,-9.984508807953857,3.4907194866419213
12.72,3.735380594927236,-10.1777311680007,3.3522659221495683
12.73,3.72161273126827,-9.904653298138873,3.424093923159885
12.74,3.724588876280176,-9.424058966724266,3.4753918042880945
12.75,3.5998362395739774,-8.982212040108308,3.492472465954243
12.76,3.4899349406361715,-8.612165160764254,3.553877745022334
12.77,3.4439824304515474,-8.352091959376347,3.769250331349835
12.78,3.367235765020085,-8.158489984819175,4.027721670363513
12.79,3.362673248870958,-7.957468163085517,4.157145977076572
12.8,3.521476777856108,-7.630233486368184,4.098590654877237
12.81,3.6563997452462123,-7.254572624528209,3.899510268194589
12.82,3.6552741753180173,-6.98095814639686,3.837807159641845
12.83,3.460817527657534,-6.878298967633262,3.9374761871158146
12.84,3.177835297083598,-7.045058750519703,3.926554422868926
12.85,2.9379281721007096,-7.511423805413508,3.8677919571621637
12.86,2.8557951468593963,-8.099889976601162,3.8336193737185162
12.87,2.9633967779037182,-8.582160223042873,3.703018038425298
12.88,3.1845810024023193,-8.75920603771633,3.563594152781715
12.89,3.288782277527097,-8.681801324236554,3.4285732565200604
12.9,3.2277315455051783,-8.450859199359792,3.4406187158958073
12.91,3.1111829380213303,-8.091522348400286,3.4904507469483055
12.92,2.98249108402591,-7.787824090219581,3.5402114776763742
12.93,3.042003474573487,-7.6265101954642756,3.462368005426664
12.94,3.249427242962735,-7.581751641925943,3.3781572454997786
12.95,3.5457879855096355,-7.669421559355138,3.447505876274867
12.96,3.858093928321959,-7.926102447542976,3.4626575220558102
12.97,4.0238653071144395,-8.179970891432516,3.6627372103991322
12.98,4.152962549530236,-8.282781105982782,4.052770280267301
12.99,4.305992322447345,-8.330948069083837,4.2849777764728785
13.0,4.412799771718481,-8.37095329791255,4.453866403812827
13.01,4.502460423152354,-8.324685295362992,4.648722091305184
13.02,4.634569531649357,-8.29842048749196,4.670284105396393
13.03,4.643373506065495,-8.523207598919232,4.571154018054557
13.04,4.5973352173945505,-8.85496005449989,4.386738966582719
13.05,4.361759771226389,-9.061017661556365,4.403892267425959
13.06,3.9259869936950196,-9.273591063586093,4.392656582171435
13.07,3.6489225951748603,-9.463433061081723,4.2884498815935705
13.08,3.5922057012813395,-9.441934006260805,4.163149323872509
13.09,3.6623551472144875,-9.27060409505709,3.7419816729433704
13.1,3.6988848275705632,-9.013527180321505,3.40106893530448
13.11,3.618322926848945,-8.753233658544195,3.247427411671586
13.12,3.4703407311828616,-8.639344141506005,3.0223468175011554
13.13,3.18402790790515,-8.844050964624506,2.875840742619503
13.14,2.8527850428179153,-9.15123934925316,2.8932776833605
13.15,2.5239679289777297,-9.24302846773683,2.8324423612252136
13.16,2.607288378909468,-9.057026905785523,2.695654319658324
13.17,2.7770597484041066,-8.936934523716202,2.5555871958153507
13.18,2.656484216292409,-9.089625586118986,2.6212448391633463
13.19,2.4028000819251814,-9.35181086961981,2.860883058427842
13.2,2.0324443678561197,-9.47635717973522,3.230960347018943
13.21,1.8778831782168708,-9.195484467901343,3.5457776997991775
13.22,1.9171749162197613,-8.73567841665076,3.610860101377582
13.23,1.9513432731306135,-8.337557475249152,3.560727030210621
13.24,2.0035133979226116,-7.8496007947320985,3.7013429307753536
13.25,2.011817636477034,-7.60128726349648,4.221252875339598
13.26,2.2313727742831944,-7.645188893692382,4.785283236995808
13.27,2.480648005866178,-7.795211488173313,5.369596720019966
13.28,2.751439043559409,-8.025530304909775,5.674667747525413
13.29,3.004708301416923,-8.348784154921633,5.526522169084899
13.3,3.1050225103830797,-8.635489773800433,5.341459195544098
13.31,3.2972749980335836,-8.543840678651872,4.794172626235395
13.32,3.415170298866247,-8.174043014036933,4.047179092221811
13.33,3.1759711096968655,-7.711636080361004,3.65114848794733
13.34,2.8854900748089087,-7.258345429097902,3.435176833744494
13.35,2.969331075647155,-6.988463048702204,3.2594316137038413
13.36,3.259340673220723,-7.139535367392818,3.153173512502138
13.37,3.479864404109094,-7.4821725855239745,3.3401898852919243
13.38,3.664153099736308,-7.556091725916538,3.7185570867535254
13.39,3.744674997024988,-7.40434182752579,4.010714216618389
13.4,3.6337245651914465,-7.219668471442038,4.2755440876302835
13.41,3.5003877456036947,-7.061311857888996,4.496246181641242
13.42,3.226530653418895,-7.133630677905182,4.542926860007306
13.43,2.883461599059698,-7.522153989691059,4.548130362689386
13.44,2.8178272020344544,-8.111372655444816,4.443096348795827
13.45,3.1038963366402093,-8.666655198051584,4.186491872461408
13.46,3.5338316706667277,-8.93262634294522,3.9439945503173295
13.47,3.9158408219560146,-8.813124500922166,3.7726923268919554
13.48,4.14769033385059,-8.448803693194348,3.7526956816774137
13.49,4.086612305567687,-8.084557321651642,4.004549286436203
13.5,3.8059639651340436,-7.82776309940513,4.420072346834447
13.51,3.539435806696998,-7.790853037244069,4.695463546609173
13.52,3.325331344407721,-7.998124007552254,4.825339539439348
13.53,3.1830195799953414,-8.184037537404993,4.943847690372396
13.54,3.11390157036013,-8.266262835859342,4.992411389644525
13.55,3.124159791582946,-8.202354903825794,4.998565185576658
13.56,3.2700640229862414,-7.929319394011379,4.929140322983498
13.57,3.4192954847695924,-7.58912037115743,4.815032638354061
13.58,3.501913901450083,-7.296603094462606,4.788567817900709
13.59,3.724552657220392,-7.1616958525811345,4.7545797455401235
13.6,4.180199878047965,-7.276276806023256,4.696722423476537
13.61,4.551474152872955,-7.649736046205856,4.619318588398063
13.62,4.681499423339647,-8.170651387353342,4.593925405790471
13.63,4.646907100374714,-8.671625399158124,4.647182380258899
13.64,4.5040042474795134,-9.036555103731608,4.651367777638167
13.65,4.347536594430604,-9.252803464052652,4.651278612233758
13.66,4.2962509546845045,-9.321200364902413,4.604805576168823
13.67,4.258422079669732,-9.260323370837483,4.52958620149209
13.68,4.056600031061781,-9.102330330275347,4.4830028934739135
13.69,3.751676482839344,-8.85031023085905,4.466567262196565
13.7,3.3602541100947922,-8.546560219441277,4.516997812440568
13.71,2.957341284426689,-8.224693982588958,4.44507682819415
13.72,2.75816894517638,-7.981082984478759,4.1908029465727745
13.73,2.7930957467698487,-7.813662515634252,4.018727239670877
13.74,2.8026435969093892,-7.690805532135271,4.004050097468221
13.75,2.658937676486666,-7.635858949995015,3.9828448290328655
13.76,2.3035615664675495,-7.697343772359973,4.012780791669102
13.77,2.025740784129872,-7.859427455765744,4.087597391876774
13.78,2.019883228939805,-8.250406578226425,4.034124684401396
13.79,1.965785916254951,-8.999549467988023,3.7455997090615876
13.8,1.9728143681987378,-9.705912027222773,3.3899743251958547
13.81,2.2588970711147467,-10.351700325559472,3.1932519323160258
13.82,2.476388276273902,-10.90418607766307,2.9529346662789617
13.83,2.5113892562522127,-10.797138837041299,2.8778959017857324
13.84,2.573429724099352,-10.063695655108143,3.0900811536558312
13.85,2.5035126415691744,-9.331145918361171,3.1525090661942605
13.86,2.4043100507884794,-8.872660848375745,3.106155640519529
13.87,2.365382411566337,-8.473823989481872,3.2418262113399576
13.88,2.2874192611253816,-8.017600571517464,3.5365448312177006
13.89,2.2409332253432033,-7.5292415600829035,3.8828946209668294
13.9,2.4252345306626597,-7.137168986273602,4.2146237330063
13.91,2.779046770944829,-7.103382933722645,4.482698206804297
13.92,3.0445180854386895,-7.460842091268675,4.688295475737632
13.93,3.1706387533576343,-7.866939336581813,4.763116498786474
13.94,3.1638482174694667,-8.04144188177493,4.623140506626387
13.95,2.9200196207494002,-7.923651286638582,4.393107322187311
13.96,2.61707689511616,-7.704323148673393,4.1224406186570075
13.97,2.327617783806572,-7.61051417908868,3.841052056727519
13.98,2.03544736036445,-7.580105140355664,3.7792060905630387
13.99,1.85827574931466,-7.631600397385702,3.780505620053371
14.0,1.8346781156884249,-7.8174973524143905,3.67598597092165
14.01,2.0680756461896173,-8.037206965154958,3.441952167077927
14.02,2.7086509472630946,-8.334081215949602,2.936013697864382
14.03,3.395204112796484,-8.780928067004185,2.582953630506169
14.04,3.4985906925073933,-9.245036623942001,2.7486412494800367
14.05,3.279142046509079,-9.582568232685245,2.82295673991624
14.06,3.1820666931309223,-9.798695611632127,2.9628393015486765
14.07,3.1508586138562653,-9.797913796571814,3.553188214070356
14.08,3.15012060438308,-9.577353053098456,4.1775146993429315
14.09,3.3981490013530338,-9.46938143751841,4.6153445497869585
14.1,3.8121004210430365,-9.606000421528549,4.864880020619081
14.11,4.031579084500539,-9.868619718634559,4.923198202143483
14.12,3.957583756302713,-9.915436210219937,4.979536420197072
14.13,3.120613611593373,-9.686547207038007,5.262345446810594
14.14,1.8493154403576575,-9.503782397744926,5.920592450125027
14.15,3.387600068315875,-9.115840219048547,5.716690818613987
14.16,4.468586086850565,-8.493606990542707,3.835354357921039
14.17,3.238923356812189,-8.360649710224074,3.7083241395203266
14.18,2.765314513484516,-8.439505529827217,3.947472190214444
14.19,2.901803490268478,-8.40632772211413,3.730404379584628
14.2,2.8334194286583596,-8.570645956329386,3.5968480534212444
14.21,2.318958834692474,-9.021375757866524,3.678372716616164
14.22,2.244409852763099,-9.056636279363632,3.5778847896876287
14.23,2.3763268132310578,-8.678216242078975,3.173113811778238
14.24,2.039138396330773,-8.46623144641793,2.9807433443527938
14.25,1.653918253693101,-8.306259108480843,3.084052333069482
14.26,1.5159943121422237,-7.957544048141458,3.2908229539825387
14.27,1.6073754928307538,-7.628899313907094,3.632844155866301
14.28,1.8102428740754526,-7.407708801051435,3.9076899352988512
14.29,2.0403167380376677,-7.431413445064432,4.035027433700787
14.3,2.109894819207341,-7.8918100639782125,4.502876984780879
14.31,1.9536495359206691,-8.559718937532542,5.299139926798769
14.32,2.064153515831648,-8.883685172630171,5.201830440374832
14.33,2.766718053353098,-8.500629329079775,4.25247447461493
14.34,3.082125049297293,-8.35610990918921,3.9131565178242647
14.35,2.9490988226664583,-8.423340237758515,3.8499590535906583
14.36,2.5470675222783195,-8.55590539966831,3.8057184493149254
14.37,2.3458983729310705,-8.721470898586835,3.5022640194795165
14.38,2.1722431531136204,-8.642634154804782,3.2924048940963684
14.39,2.1570562260410275,-8.469160331636555,3.09517669366524
14.4,2.4998922663738123,-8.28145728941264,3.1103379151738433
14.41,2.8884529649060844,-8.09369426247716,3.3688822520254242
14.42,2.8815480643054006,-7.912181296592958,3.7455105059669886
14.43,2.611810591515945,-7.809399222853869,4.044322213785327
14.44,2.348959166143659,-7.74453234206907,4.0749312838447
14.45,2.304243081931243,-7.405705275982102,3.999565410318214
14.46,2.3349352250267033,-7.031772988552029,4.02192770821772
14.47,2.5759381102681806,-6.734580177734471,3.9975504213923676
14.48,2.867736471603881,-6.53667335025957,4.0572547442801215
14.49,2.875511196515308,-6.731591093246303,4.2671153996514235
14.5,2.903047029849744,-7.088674773773354,4.3702396675251585
14.51,2.772091323231249,-7.517070866898154,4.343245329612547
14.52,2.5167144105129355,-7.837330491673781,4.3936924242941995
14.53,2.352559246449315,-7.904254075670324,4.549118146750559
14.54,2.370361542757922,-7.872378891430708,4.569423243198857
14.55,2.4990693059495506,-7.900426957862072,4.686980587410139
14.56,2.6772672693827557,-8.082387845843844,4.800063194108627
14.57,2.781285192356683,-8.397467161246624,5.153303410938948
14.58,2.6388185097903354,-8.956216171049483,5.656209219810605
14.59,2.299629766058671,-9.498445602241228,5.971870600766691
14.6,2.0258232384693846,-9.796014679176078,5.907714869484597
14.61,2.1675265688992034,-9.857309999188098,5.6322187763925005
14.62,2.601241048358546,-9.738373369887121,5.457087956059338
14.63,2.916595971880878,-9.555912381571046,5.16634203310772
14.64,3.1575309974415826,-9.390032257753903,4.85014313438694
14.65,3.477870016942374,-9.311965527249694,4.683651743341631
14.66,3.526938919981277,-9.141464618202228,4.760167875148302
14.67,3.5431522194065352,-8.862122888725425,4.803259124178856
14.68,3.6265113171870307,-8.621619129479058,4.780648574980022
14.69,3.3900962544025104,-8.5060984187301,4.82543577431538
14.7,3.221367838182853,-8.163771786231184,4.871491821879333
14.71,3.2938448101212328,-7.813952247169443,4.706300484965407
14.72,3.33160623230515,-7.578692579236068,4.519802066689631
14.73,3.2696011306517625,-7.401393465869235,4.300151921290502
14.74,3.2351002516729626,-7.152023096059514,4.172742439719324
14.75,2.9019699638953322,-7.10680071359786,4.019600267445849
14.76,2.1652752011111724,-7.313596141898746,4.014827750488635
14.77,1.6277807972816827,-7.7814083247505765,4.0024308434509095
14.78,1.582508802729831,-8.22427272280302,3.9485926125736395
14.79,1.6712333415661864,-8.488741408284962,4.045657804968781
14.8,1.6647982359290205,-8.550359265746271,4.046676798876722
14.81,1.726920317787835,-8.526859521115753,3.8984992565163203
14.82,1.976396538597311,-8.610650629401446,3.8781752182800804
14.83,2.3879039397582513,-8.9032050420968,4.130159116994576
14.84,2.7841840479495823,-9.595115310311186,4.3868757660026
14.85,2.56834190361278,-10.19215907681036,4.784794443168042
14.86,2.27108702398986,-10.584180574678943,5.231480265045166
14.87,2.158571611903433,-10.986262951025717,5.2026151472482285
14.88,1.9723141160052342,-10.709356581692829,4.857988982688321
14.89,1.7956924992215586,-9.54372236352791,4.804203853440553
14.9,1.360217164344271,-8.184207968011263,4.6062607294953715
14.91,1.2799263142637154,-7.3562533752864425,4.535546836437832
14.92,1.2440254603009309,-6.989525794299223,4.378456301267715
14.93,1.252015980897494,-6.8223718191028295,4.349876574915182
14.94,1.443955972986861,-6.759440111923419,4.310589799785155
14.95,1.6217437372188912,-6.782735143740273,4.202062534138866
14.96,1.7266027379633115,-6.894494941152314,4.215033551282039
14.97,1.729761194088596,-7.287082562761405,4.407294054196992
14.98,1.568252896316173,-7.815556052345231,4.903290044748984
14.99,1.4842734122915833,-8.312998499222688,5.149459865369736
15.0,1.8723035518660671,-8.596233840925422,4.834141567172799
15.01,2.183186549222896,-8.812135800359162,4.441764725234618
15.02,2.311588284835673,-8.964353583163438,3.9792961926350925
15.03,2.5058735699465284,-8.860620606640065,3.748852987863039
15.04,2.7009501546978925,-8.599069425453228,3.584758109878858
15.05,2.758215360325057,-8.652665056137325,3.573398699595231
15.06,2.5974295925608,-8.645976280972798,3.9530675422801727
15.07,2.715834675018667,-8.663238547954943,4.05657171215062
15.08,2.7192854163009925,-8.940700489665648,4.063567328303877
15.09,2.515058397969974,-9.452995970215177,4.436230442454779
15.1,2.302486888141274,-9.615302523590216,4.741099864699519
15.11,2.3901826219109714,-9.636331602606418,5.054000629068269
15.12,2.534458927855525,-9.676866760173445,5.251619875774292
15.13,2.6074415157646396,-9.506082356165752,5.174361077399634
15.14,2.728007825774409,-9.263253921398514,5.073717136213961
15.15,2.749736382929951,-9.312960793851131,5.021404027300964
15.16,2.3022932498627995,-9.518146609867621,5.332020964472176
15.17,1.3248254485310629,-9.808613922553398,5.763269830399443
15.18,0.9260821433390786,-9.804955783351014,5.459662976552537
15.19,0.8269307850947839,-9.366161518179778,4.9657856875250594
15.2,1.0346937478313183,-8.462029651032223,4.397037147900225
15.21,1.4632909773560394,-7.952235613865379,3.753358507771074
15.22,1.7302134702200023,-7.9329673488961046,3.3563186941069625
15.23,1.7643820325957655,-8.082670040313603,3.216451961814656
15.24,1.6660525030411013,-8.428832956668538,3.2849946284941764
15.25,1.628084510519552,-8.786045805981182,3.3340316096606784
15.26,1.5254627820862467,-8.875874387537879,3.2502796619421375
15.27,1.4761584228869562,-8.831265320557408,3.4326828215830902
15.28,1.3450452767957684,-8.7457059458092,3.7614003190174894
15.29,0.914813574259063,-8.838982887481011,4.141842152560687
15.3,0.6034381204349246,-9.114311279503475,4.400646428116539
15.31,0.19411182218285164,-9.278892532671017,4.61215871594753
15.32,0.12367770613829294,-9.404465700648379,4.978325205841001
15.33,0.2688104755357296,-9.570747096883519,4.964781108518324
15.34,0.2571200601162683,-9.420950347236568,4.9742311493678635
15.35,0.10784874219337297,-9.228079342008897,4.838331276831267
15.36,-0.01694454059174867,-8.88355946173915,4.350089617789634
15.37,-0.08689897615784277,-8.321376157938955,4.261351595511114
15.38,-0.03793713976036993,-7.729829285955717,4.470624774033394
15.39,0.1494184539749099,-7.268388182031517,4.598638353650949
15.4,0.5717268495253478,-6.752391047142038,4.679420127674606
15.41,1.058255762024883,-6.628697158152446,4.322043381977613
15.42,1.3242901278711443,-6.688534708271455,4.36773479153682
15.43,1.4628179590600041,-6.667585071996311,4.340536596030463
15.44,1.5975578756234705,-7.099878726069955,4.045181991876029
15.45,1.5309829532517787,-7.437337746906946,4.200368330578951
15.46,1.3803352638055872,-7.687762559794089,4.323546291908211
15.47,1.4684144110868187,-8.038586203637271,4.592572501612187
15.48,1.5377170929390498,-8.20210420490134,4.750248840687633
15.49,1.495313342978319,-7.915389811564209,4.441146475599917
15.5,1.3300616298646284,-7.65070754177873,4.018837573993159
15.51,1.129950361879951,-7.667497584821003,3.9997486524192114
15.52,0.9759076121032163,-7.741050733656156,4.260075922334403
15.53,0.6069751257353525,-7.953941837529307,4.232941704317621
15.54,0.47318220269633343,-8.444270014258134,4.448880655092496
15.55,0.6910136587728849,-8.758094883434904,4.904973161985075
15.56,0.845114253676962,-8.802931210658093,5.338381864382536
15.57,0.865227645828711,-8.906821763919307,5.688140332067324
15.58,0.9297792645031676,-9.08020978145647,5.914904047482392
15.59,1.1124256674174258,-9.221604663628895,6.0500109095749846
15.6,1.3473819585567512,-9.30155621393283,6.217768905021508
15.61,1.3573275552516357,-9.50119607013949,6.282292697686793
15.62,1.5040712410370105,-9.597915538015421,6.282590341283992
15.63,1.7781503525161322,-9.392283965789689,6.058623602741919
15.64,1.862175532119187,-9.01005568563347,5.912577667941863
15.65,1.8013258307253412,-8.55442873865809,5.5988390968218
15.66,1.952139868958512,-8.181797957523111,5.268317744756714
15.67,2.2179196381975474,-7.876652934458868,5.0466210389430275
15.68,2.535458615018957,-7.721075946755292,4.775188970813483
15.69,2.7747454267749148,-7.791879236863779,4.501859605350304
15.7,2.5977815629093906,-7.836757569409661,4.279301653845254
15.71,2.433881754202707,-7.991809640174769,4.019287913148528
15.72,2.7690155977511313,-8.242961105801701,3.980619688902701
15.73,2.161488176096023,-8.25791066138015,4.458529888162008
15.74,1.5357406961878244,-8.20703626017566,4.798579154326785
15.75,1.0893334525413854,-8.306293626174034,5.123000550468769
15.76,0.9633756540915388,-8.43203422696388,5.053131817256821
15.77,1.1202083048059512,-8.3239943633738,4.714738011526001
15.78,1.1880104193852394,-8.392375576753974,4.822500572363668
15.79,1.1579707314052032,-8.687709528767197,5.17096158258895
15.8,1.1081300301566135,-8.954518430412646,5.562490617318079
15.81,0.9934821926375756,-9.102122233058513,5.773305917721284
15.82,1.1026816322431496,-9.336265862099145,5.777922005372197
15.83,1.2916870943699124,-9.699576525005149,5.909676878441043
15.84,1.4043064978821105,-9.913544338663826,6.0521021292243615
15.85,1.6272261475308012,-9.981149610876422,6.09490423745634
15.86,1.7094266678172,-10.087469288896509,6.3217959469405836
15.87,1.6728243771518008,-9.958977920090181,5.919779525087603
15.88,1.4278324249287393,-9.447906830277864,4.96274250652441
15.89,1.0615858322726208,-8.722751113159141,4.142798771629781
15.9,0.7673368546299748,-7.817552748983832,3.653488654306417
15.91,0.6643975293676211,-6.931232092118163,3.4507745817264097
15.92,0.6550710891620978,-6.51362501068291,3.5500759632382866
15.93,0.7459013992060424,-6.533856858725953,3.7234697071319
15.94,1.3810201812804,-6.5233732818450765,3.741491147806106
15.95,1.8977568795206834,-6.553864230299702,3.7505571484674074
15.96,1.7882660382704674,-6.843472084687642,4.245197614026984
15.97,1.7915361309080047,-7.290554165363791,4.811565193969929
15.98,1.754686892391449,-7.5236988824026625,4.8047804942449215
15.99,1.529135873630539,-7.6337044530643325,4.6243287243795885
16.0,1.4011806322436837,-7.6792645676334015,4.4494862659118635
16.01,1.1473152389504806,-7.661610649691281,4.408255980321163
16.02,0.9708081585727834,-7.598964721844635,4.677110178646001
16.03,1.1400774876936903,-7.742205271617579,4.858970462529922
16.04,1.4923924438982268,-8.018462028229193,5.058428503665858
16.05,1.8355375743750841,-8.341636824525557,5.2487525295164374
16.06,2.104997038609696,-8.800360549298269,5.288688218212449
16.07,1.9779880626772774,-9.11725920348164,5.267931976581808
16.08,1.7851559887540684,-9.076498153510196,5.256856836362107
16.09,1.9321475070372707,-8.907136268666779,5.114503631441486
16.1,2.2394735085553847,-8.843688233647365,5.057465488555054
16.11,2.496794213564336,-8.836995560278673,5.079713445081825
16.12,2.6944371533610063,-9.05250745764963,5.003173362038372
16.13,2.7694715350707364,-9.424708121651864,5.0104126107807225
16.14,2.6756513955320607,-9.622598346919235,5.161322161167065
16.15,2.419389847215564,-9.640444631446277,5.2073604566129985
16.16,2.094164242123306,-9.731112289477732,5.223309644058709
16.17,1.816925768886507,-9.820579620522166,5.253689362038989
16.18,1.5335714458417307,-9.770592798720298,5.229835780547198
16.19,1.1759997577038612,-9.870629109794656,5.116131746405191
16.2,0.9886389273721836,-10.006737782589127,4.9743955901885375
16.21,0.9005506283344573,-9.946743356478997,4.802327937540133
16.22,0.8114465747737319,-9.706815835582251,4.601893982669373
16.23,0.8217000766263243,-9.234013559400296,4.51113973877131
16.24,0.7623381831920928,-8.551854222511214,4.563628923385934
16.25,0.5080987437375123,-8.074237843367763,4.606869654427628
16.26,0.23631418166002038,-7.978940896419026,4.552464902179881
16.27,-0.011632368573171695,-8.041359958905955,4.392638210605853
16.28,-0.25013564075581685,-8.108337371609732,4.169495385480468
16.29,-0.44613366283255523,-8.231413335783758,4.053597615080995
16.3,-0.41213005672106096,-8.413847933852313,4.086322468735045
16.31,-0.13772519077767437,-8.584962084178638,4.162637440481404
16.32,0.1440608556217768,-8.708465736191037,4.19308303690256
16.33,0.33817152473223044,-8.899373824798024,4.22386517286023
16.34,0.4895934915991016,-8.970755425407958,4.38968998342996
16.35,0.852133261747677,-8.9379146325432,4.436632134746104
16.36,1.3919032161984386,-8.81274968847891,4.44345160834842
16.37,1.6064019940618515,-8.365361209619278,4.340816966139076
16.38,1.3303528230905388,-8.0328329324933,4.2541157761496775
16.39,0.9243048005145954,-8.040567889641313,4.323631107737874
16.4,0.5660543769610518,-8.075110536379725,4.47007222871581
16.41,0.41497276269757966,-7.997350560867393,4.657737147434963
16.42,0.5808961017987352,-7.621370309220608,4.797708959320005
16.43,0.9056516663222403,-7.147138501615957,4.723139521735447
16.44,1.189002651971026,-7.060419907152187,4.766809141200082
16.45,1.2133668890682225,-7.206945608345468,5.1646398999036895
16.46,1.1490267048661358,-7.291540577045421,5.408391642483454
16.47,1.2680063358826137,-7.363796739361408,5.155285033170168
16.48,1.2470989609708183,-7.336040411736606,4.822849372356424
16.49,1.1182091547627722,-7.249758863696136,4.685324441174476
16.5,1.1912029929175934,-7.257565503851881,4.541398787188444
16.51,1.1907319614944245,-7.379715154074244,4.416849705628291
16.52,0.9868828062069923,-7.526408189913921,4.495010974592299
16.53,0.9562102470544577,-7.808503673685407,4.616243793578209
16.54,1.0291595123878436,-8.301448449775634,4.763141561583012
16.55,1.02540842915491,-8.76008226895412,5.081978564388433
16.56,0.4654382646253942,-9.012714231888394,5.457065665376855
16.57,-0.29707680848814566,-8.870451646648318,5.86255059749153
16.58,0.7380325665765498,-8.653871817960992,5.69753359980189
16.59,2.1208572045512795,-9.085188452993636,5.266988144023437
16.6,1.621466174151534,-9.607385692133573,5.479818056656562
16.61,0.6782180418471744,-9.554104861818008,5.6339169095504245
16.62,0.3591670476623644,-9.171631554881671,5.385750317549239
16.63,0.48731290091048196,-8.72194983012558,5.009860263033732
16.64,0.608135829619707,-8.44063392062153,4.77611997560248
16.65,0.4100612381068882,-8.433534474750294,4.951425793804456
16.66,0.2657696335349951,-8.678098458763568,5.304600125430357
16.67,0.45425875085351697,-8.89146385202021,5.60741574619796
16.68,0.9376162910863256,-8.780425088507005,5.596924154760234
16.69,1.5371317411299292,-8.474110862480495,5.348490695757599
16.7,1.8100402725636389,-8.189037044212226,5.331114720255024
16.71,1.6727308711819888,-7.9994446384024265,5.323286626740827
16.72,1.6505064580672146,-8.047654789931434,5.090461153682592
16.73,1.8109969409572644,-8.233330648827598,4.91665609559589
16.74,1.8019336758620146,-8.233736197866529,4.733261511945371
16.75,1.8119220289222118,-8.183755643311878,4.428821496975356
16.76,1.9834149045190124,-8.274294684763635,4.1854725962332475
16.77,1.9625534512635148,-8.470470935779597,4.217861790555387
16.78,1.7370637791156607,-8.775858974989536,4.465822269026299
16.79,1.5358352144577019,-9.097628983138932,4.951520513618932
16.8,1.3305278669804081,-9.430736728078832,5.5350307047203335
16.81,1.1277980906097305,-9.740957005557892,5.815300293344072
16.82,1.1026138975137307,-10.03861530762235,5.786051454625246
16.83,1.0307182559368608,-10.165847244577046,5.778499800601851
16.84,0.8990229746173058,-9.66410157693573,5.866721355935168
16.85,0.9131650644949535,-8.888616400912944,5.7398419450938185
16.86,0.9090364995058573,-8.349208978702425,5.352076412403883
16.87,0.8157622575157736,-7.9417391196082745,4.938014532857678
16.88,0.5411588118088948,-7.740346911618863,4.563909860303468
16.89,0.15467208994236517,-7.83885907788611,4.353181840062773
16.9,-0.20545348592769075,-7.933379550518164,4.143894643762487
16.91,-0.5118538916846455,-7.794223183068155,3.911993086911477
16.92,-0.6852744422059868,-7.462924149506359,3.8122460880382243
16.93,-0.5467901056177182,-7.099638150921395,3.887784063197681
16.94,-0.30104799473302685,-6.83442620930941,4.134173777590143
16.95,-0.10984988759303536,-6.793556593993553,4.163175676690956
16.96,0.17608728370140686,-6.988543469583595,4.064516947216996
16.97,0.5409515153915405,-7.344967897121672,4.244107131415591
16.98,0.9365071707092905,-7.577687780278189,4.3967672103291475
16.99,1.1999501568424402,-7.704494688839778,4.371221440934256
17.0,1.241718983890785,-7.946073177905951,4.326944811498014
17.01,1.0995076429319854,-8.287099481595146,4.482964182393548
17.02,0.988937477968825,-8.590453114046678,4.704303680734878
17.03,1.0500878413415657,-8.77849349096242,4.883056612787203
17.04,1.2302156019310906,-8.973847279982376,4.957494369687459
17.05,1.2460588931446555,-9.239767042029863,5.1497410690009975
17.06,0.870690419590741,-9.393748399192354,5.47341743749894
17.07,0.5882258500379308,-9.41625820676333,5.502023283033236
17.08,0.49103596969756835,-9.312021282231797,5.420160007350111
17.09,0.4576488668046347,-9.218900802550584,5.400730048114114
17.1,0.5594719243943068,-9.217291686171057,5.117335893344195
17.11,0.6961656916856903,-9.2589941027468,4.928012277118038
17.12,0.6571671621318886,-9.293515114212694,5.146816459476231
17.13,0.6249501238652739,-9.356296474346852,5.351497033406129
17.14,0.7804520249938025,-9.327513356675293,5.345544452372113
17.15,0.9561402887440298,-9.05115165633908,5.451812785753783
17.16,1.1571844467138181,-8.79645668156984,5.467672865014256
17.17,1.4369382299379427,-8.737845516529465,5.394974391020819
17.18,1.5611407152429835,-8.76173513164,5.4072421708573195
17.19,1.3432553926865787,-8.896631672609077,5.407645399496731
17.2,1.03348985605023,-9.091568406193282,5.308435955264611
17.21,0.8435020454989073,-9.211677527666083,5.1181870444817505
17.22,0.6928813181464806,-9.1627591397809,4.977938079304105
17.23,0.7246633928096867,-8.904330541751413,4.8890838363358355
17.24,0.795886255800701,-8.574703162291048,4.762664774900714
17.25,0.6696819307997505,-8.620702048870466,4.636958049147694
17.26,0.2342473860160903,-9.020262526047132,4.622663281592323
17.27,-0.15059940633075578,-9.410987595254293,4.6534359075765455
17.28,-0.34088581371026605,-9.687309909520758,4.568328104480549
17.29,-0.33094402145584256,-9.866400105102848,4.5458266289003415
17.3,-0.3289295311376933,-9.808261648260196,4.659947637404047
17.31,-0.5337717956980986,-9.695399799719583,4.611897473706871
17.32,-0.881701056663294,-9.389791136279243,4.644360546410332
17.33,-0.9679962642696376,-8.914181607566736,4.7112845635201746
17.34,-0.8146689565936066,-8.464346931062414,4.747705835575067
17.35,-0.5577922086400969,-8.10827202738359,4.693726066339839
17.36,-0.6583745095931751,-7.781410813426476,4.645912270157244
17.37,-1.0022004474629775,-7.610307245851638,4.564356042102868
17.38,-1.180326795510356,-7.6489533398767655,4.391686359838295
17.39,-1.2605837696316922,-7.596267040871553,4.22867480013085
17.4,-1.3594904880934284,-7.366366752312669,3.934916962644732
17.41,-1.4007220990370144,-7.224527106234533,3.8448004676394474
17.42,-1.1837548387724914,-7.164893278574604,3.9465385859291624
17.43,-0.5862008904182331,-7.082005387293085,4.121654880071802
17.44,0.001841647648885563,-7.095393661603998,4.543700795771944
17.45,0.2802122236752866,-7.239295877879159,5.017194614355727
17.46,0.5403239273319663,-7.339245929950374,5.148425805623503
17.47,0.7704198081286053,-7.274472364679128,5.118074751646545
17.48,0.749708513959624,-7.397245369033363,5.090527890554559
17.49,0.669191220246709,-7.783051555273322,5.009339305965293
17.5,0.4142921309956407,-7.875204267838697,5.096639635806692
17.51,0.1578388513890136,-7.657384050712299,5.1284933267029995
17.52,0.1098585208117998,-7.66361071383625,4.947786848586844
17.53,0.07920638615868976,-7.8282923002990055,4.801866335138177
17.54,-0.018668423363321824,-7.902990434431907,4.825017377363978
17.55,-0.1063383496300564,-7.956993234985048,4.940987248945261
17.56,-0.15759246549148467,-8.223079608170549,5.126619734274936
17.57,-0.2311694518612953,-8.480513782142047,5.525568150940898
17.58,-0.3831461742223719,-8.622395139510582,5.741162181497459
17.59,-0.6082845787558583,-8.727190871266687,5.763219902340621
17.6,-0.6797709171541952,-8.830620441245657,5.779398278010067
17.61,-0.5102881154901636,-8.854625269592285,5.685916085761551
17.62,-0.1972645374503988,-8.79565481150563,5.561935807719256
17.63,-0.09261212163351737,-8.782733963133449,5.702568685439422
17.64,-0.11659676879462944,-8.847224407452341,5.878660516280475
17.65,-0.08072816541865124,-8.849555607723074,5.943548281012117
17.66,0.024667549248280744,-8.750990273439355,6.063435029192742
17.67,0.11650998860661532,-8.748960782543508,5.90938406679072
17.68,0.37576935632227604,-8.722766518957506,5.758967645150681
17.69,0.4799190554796875,-8.470295440005213,5.873892030655563
17.7,0.6662578167891143,-8.210336689038392,5.73137686004521
17.71,1.0518161590530428,-8.021947083605768,5.309524906174047
17.72,1.2932691850850104,-7.8827300497967885,5.073384251542469
17.73,1.3523550964971895,-7.853094906992352,4.904249388618434
17.74,1.0587337471139908,-7.893222909498005,4.661402650741555
17.75,0.4488473689518283,-8.037518817582535,4.620502984841078
17.76,-0.07723490305796722,-8.223071938851918,4.730891134017996
17.77,-0.0812165768363641,-8.312571299248406,4.707931636154183
17.78,0.2819894280767452,-8.339436604003119,4.752212867234512
17.79,0.5291601865030264,-8.57524110344777,4.995928009880128
17.8,0.4603707373584044,-8.838103406801732,5.370662623895569
17.81,0.2868525371887591,-8.985878778375985,5.739681163400416
17.82,0.139486413750628,-9.01583491237176,6.039148457570648
17.83,0.20565738195547542,-9.036178489612352,6.0781430958714715
17.84,0.23466913932886452,-9.217070756155518,5.8231950013321425
17.85,0.08631238994023482,-9.524589642051822,5.779477027552826
17.86,-0.0592840554314958,-9.544985252906157,5.949145708287165
17.87,-0.4446762883371117,-9.229372207992295,5.891762201535726
17.88,-0.5261966865908004,-8.848919815998608,5.838252621195193
17.89,-0.37179366666003266,-8.160435599074752,5.357451366856894
17.9,-0.14920420598233752,-7.554220141882954,4.758694197056092
17.91,-0.03760023312713021,-7.544002471871365,4.4987878657268725
17.92,-0.08253056941367444,-7.604545853083245,4.467316765257951
17.93,-0.06576644593143088,-7.397052301956971,4.450542961296879
17.94,0.08838307780473878,-7.159680802518245,4.4831541802871815
17.95,0.3194732326507623,-7.069101979600472,4.7271739978797385
17.96,0.4831979123229356,-7.052839687439519,4.97005068148376
17.97,0.674636827119021,-6.953707274674082,5.100961336671341
17.98,0.8532637334814273,-6.807879376593683,5.185180468090219
17.99,0.74501003943893,-6.868783388426563,5.286159749838252
18.0,0.571558913261658,-7.11538155410753,5.4516787169399725
18.01,0.575807698642513,-7.290501762009417,5.620480505144617
18.02,0.6348782811524895,-7.453175694959415,5.534924896345326
18.03,0.8035747347116609,-7.670972849243761,5.190391031646329
18.04,0.7895643200424275,-7.975002409042041,5.075604609087548
18.05,0.7630802247630274,-8.184873040615718,5.1853863046759425
18.06,0.8390270371004599,-8.432736758380216,5.178504679484184
18.07,0.9485412053081235,-8.765074092492442,5.413422200133368
18.08,0.9718835360118087,-8.96687081969258,5.637410657760921
18.09,0.9507314748093308,-9.28599950866923,5.527262378513737
18.1,0.9048966738796828,-9.561757809477967,5.6275713444758715
18.11,0.676929017522281,-9.568501589771541,5.930474293536339
18.12,0.6711073063193157,-9.374807119488276,5.699581207915984
18.13,0.9310625171364948,-9.02104133632227,5.359834810760773
18.14,0.9733345416334497,-8.761072968512531,5.445631866815318
18.15,0.8785641723279508,-8.703540493689118,5.236812011330969
18.16,0.9006982574974751,-8.562422386953031,4.930994820305913
18.17,0.9588969684336079,-8.438128910192574,4.802125018666771
18.18,0.8412160937427822,-8.2967006439332,4.6442021562235976
18.19,0.6457452180801405,-8.269807579113452,4.503822295360125
18.2,0.5416895164703897,-8.29028523599274,4.516412912144573
18.21,0.5344908102950763,-8.356406002012417,4.508231223018831
18.22,0.47609424258938216,-8.340771169296676,4.466387697619574
18.23,0.25927799545284286,-8.364900361257371,4.661616418226748
18.24,0.3124301025157118,-8.387957245670771,4.901166533550093
18.25,0.48050758984332487,-8.402890558930517,5.300794274486858
18.26,0.5581408192872831,-8.40564236404673,5.817835963656815
18.27,0.5833775785678955,-8.537936288889675,6.121737413063685
18.28,0.5789479763389148,-8.867853103395355,6.28608535692919
18.29,0.45586438255709416,-9.244206382531917,6.480787634008026
18.3,0.1669758957061991,-9.485429759704328,6.317064944452205
18.31,-0.17063201881873083,-9.716441304104796,6.0532017957083815
18.32,-0.34075197664120677,-9.853534201306552,5.928617704839165
18.33,-0.27573483384413106,-9.843187167247041,5.842916080130791
18.34,-0.2653812251992244,-9.605132520137154,5.651814453273926
18.35,-0.11738351247602617,-9.176513364724395,5.351764313274762
18.36,-0.07072031184396284,-8.789090495154442,5.077459723255087
18.37,-0.3104696922012241,-8.670500604721163,4.943368825280384
18.38,-0.5760291418910543,-8.576908892765747,4.835036586757587
18.39,-0.8190042077603117,-8.242616562958391,4.5313869503779
18.4,-1.0119983095087135,-7.666621794090965,4.154173612888058
18.41,-1.2206931558048595,-7.115123555225718,3.8010297143618783
18.42,-1.1437066967693563,-6.868926409932217,3.587363706938552
18.43,-0.8336315602682839,-6.737156449945429,3.682554170051083
18.44,-0.5246701043799306,-6.689196620261948,3.981464989341338
18.45,-0.25398405652571926,-6.670905481758547,4.412971420527204
18.46,0.05522481027923292,-6.653500700837757,4.852373523354754
18.47,0.2345621107164253,-6.751339994003498,5.220109329169203
18.48,0.40741684066263734,-6.96624899643924,5.406641064825488
18.49,0.754212265018956,-7.177467989548686,5.441006066820896
18.5,1.0052220145905895,-7.177118318094796,5.461154101892342
18.51,1.1710026047819688,-7.308729412251617,5.283947119161386
18.52,1.239867701466467,-7.499788748678836,5.090801731708929
18.53,1.2090071695908953,-7.399117000283321,4.9609916839458705
18.54,1.0960828232898243,-7.205663496166882,4.798274031301268
18.55,0.9716797080872956,-7.290080406235376,4.787021640101894
18.56,0.8603364852943957,-7.433069807168373,4.998536987654582
18.57,0.6332771461097825,-7.590433847485189,5.093007514109431
18.58,0.21115153471598683,-7.9622477819808,5.29731339327105
18.59,-0.19093060659097233,-8.24934313211115,5.714538324081369
18.6,-0.3747574252305737,-8.274106136649264,5.946145258587158
18.61,-0.3689746745223818,-8.283000775919259,5.916214533706061
18.62,-0.28853098724634596,-8.425278579082264,5.803113422229578
18.63,-0.1620572845486684,-8.70033869002121,5.784564873578602
18.64,-0.12322880590796562,-9.044954291050416,5.793900462560843
18.65,-0.25311969691483127,-9.437882442622197,6.012836505918346
18.66,-0.43852355565304924,-9.702362130282163,6.251711344575998
18.67,-0.4569544051419621,-9.664295686908313,6.289875032451659
18.68,-0.49592961703552596,-9.440170785710224,6.288874594586107
18.69,-0.4821223531298801,-9.169116307393137,6.473579596810387
18.7,0.07468887441941924,-8.889795073155387,6.2930983311355
18.71,0.7062947912924782,-8.541751807468218,5.922008614163025
18.72,1.1010695343126962,-8.379674133892244,5.729743192488578
18.73,1.3339645034211232,-8.37125909260718,5.606460754175219
18.74,1.2084072193241373,-8.11142525029132,5.521789210943369
18.75,0.7148655785262449,-7.658286166147536,5.428844807284069
18.76,0.3703106122069127,-7.228483698642129,5.2805511452885145
18.77,0.3500241236425785,-7.000125658162589,4.989458021247151
18.78,0.3202671731087806,-7.004657340321705,4.87428988667485
18.79,0.17668590330034453,-7.128987294544865,4.75963026122919
18.8,0.1914814629260677,-7.301114183017991,4.5085233164315515
18.81,0.22917437927050063,-7.45119058916039,4.268808839736872
18.82,0.03482008233125947,-7.603060302513387,4.32494043227237
18.83,-0.2740663689266667,-7.782679968781168,4.494095865680346
18.84,-0.3690395399762271,-7.803083097845184,4.68656864962662
18.85,-0.29413935511412864,-7.89566302745417,5.123839376929942
18.86,-0.040592094469859986,-8.27781685618738,5.757888042984233
18.87,0.22043691224793674,-9.306192820048008,6.354797937225599
18.88,0.4556338209378799,-10.247809628047651,6.526254869875856
18.89,0.3966854641504873,-10.38556277905761,6.678516028352909
18.9,0.3649326301557808,-10.015009791864358,6.881084411534353
18.91,0.4281190903376295,-9.776282702137296,7.089048354377343
18.92,0.33019318756336347,-9.47251762391015,7.0290819149823776
18.93,0.24436292237217833,-9.075972621293813,6.6664457874421865
18.94,0.06674852915794824,-8.742981130418933,6.2633815628582905
18.95,-0.1556923100676069,-8.457763841430953,5.881154433861717
18.96,-0.2135772475317213,-8.105993308302802,5.41152430635527
18.97,-0.14864931321934957,-7.584502767932599,4.964830919751165
18.98,-0.10920423421763605,-6.980400533101457,4.692171794258998
18.99,-0.20065625023381156,-6.475144653472896,4.6629700048922755
19.0,-0.31473665784667304,-6.1570781840950115,4.898503083332825
19.01,-0.17190631844906487,-5.942656037577855,5.14256057145965
19.02,0.12480660979883457,-5.975108406038012,5.235940292203355
19.03,0.37835242618190157,-6.308179653618727,5.16734080039858
19.04,0.5362516446536878,-6.635082120716215,5.0615604121308575
19.05,0.6018203762826322,-6.877470165383587,5.017486595670367
19.06,0.6950103887709366,-7.148374040412778,4.989145293675193
19.07,0.8885501301817736,-7.393775536040314,5.068681106264093
19.08,1.012552149673973,-7.543501498624297,5.1789838554135965
19.09,1.0102694899603657,-7.850162304900842,5.173871218613055
19.1,0.9484457582630424,-8.372138526154995,5.32413091414527
19.11,0.8730902091469056,-8.867705554392154,5.7747645056760515
19.12,0.8751808001448426,-9.237501036694878,5.978705972059937
19.13,0.8227705101492452,-9.506217312206795,5.9258622136624926
19.14,0.5628852980811501,-9.59303675860739,5.905693711872113
19.15,0.2470454501209488,-9.548231574946898,5.910004704232204
19.16,0.07271008333896697,-9.434300209153308,5.870592811128306
19.17,0.06330059889796315,-9.175124558498238,5.854640034154552
19.18,0.13412742125530552,-8.812625746535904,5.820312628945484
19.19,0.28884847851493894,-8.595286975998643,5.7828816975513915
19.2,0.49520160581419875,-8.513184883564074,5.733372791740953
19.21,0.8060359940606989,-8.417106036626425,5.674847135365723
19.22,1.1198028067446335,-8.280405087793403,5.581121702131304
19.23,1.1876334370143697,-8.03230609954416,5.485646875369372
19.24,0.9786047856845205,-7.832348850295467,5.361446198815143
19.25,0.7158085188463131,-7.957011714563599,5.168251858414141
19.26,0.453842568133906,-8.285489796407454,5.111000783159509
19.27,0.29189906696590673,-8.488675990989103,5.062975185863176
19.28,0.2434649401753958,-8.43495231243838,4.912959837410612
19.29,0.10850768043099897,-8.378847502358651,4.7854787680327755
19.3,-0.07998858719270835,-8.526609093419047,4.814640361559683
19.31,-0.12746435861767605,-8.88099405164746,4.959260541273333
19.32,-0.09254169833440558,-9.25090343699184,5.218865277962343
19.33,-0.19790178988240753,-9.466104777046969,5.559313570381258
19.34,-0.28493686445912353,-9.632639955798863,5.895634419078467
19.35,-0.187601536986659,-9.619860196765563,6.315207893003276
19.36,-0.2856458414035488,-9.333861495653457,6.700630470000889
19.37,-0.6689458010370501,-9.086617725872644,6.682617584525491
19.38,-1.1177267484608913,-9.01792698244165,6.531830845108573
19.39,-1.5556267392230656,-8.88470724231456,6.326056753999226
19.4,-2.047080077350338,-8.548409812114528,5.923688326474257
19.41,-2.440584252328215,-8.141404913416434,5.398719096178428
19.42,-2.482994199519571,-7.817454984826736,4.892889522994819
19.43,-2.076144049556768,-7.5716213501187495,4.335337774235224
19.44,-1.4626230339633979,-7.237329190865601,3.7595845170363464
19.45,-1.2159056882657953,-6.869130920853787,3.42797149459133
19.46,-1.2509712522795087,-6.697859763758233,3.362031135838801
19.47,-1.1539535297117975,-6.495507980654347,3.536526757018612
19.48,-0.8317796479059528,-6.172156256738658,3.8596490524577596
19.49,-0.376791557097527,-6.09028969572701,4.331391661382098
19.5,0.008725880454379921,-6.175147632417266,5.060071800926755
19.51,0.2677309314484621,-6.243881171475764,5.780020044544693
19.52,0.5686288588170907,-6.5417834171139795,6.23721262459306
19.53,0.7372173569589212,-7.143052640582527,6.491180582620301
19.54,0.5099742206214513,-7.629023357107768,6.51811876803973
19.55,0.18465138312065524,-7.656098913831978,6.108930761810281
19.56,-0.007652214716891082,-7.524388183955298,5.5085816994399135
19.57,-0.18471908490598038,-7.637327852680897,5.258442710943633
19.58,-0.4229239365060145,-7.77766981701867,5.208210210313334
